"","subid","submit.date","submit.time","trial.num","itemNum","trialType","samePos","chosen","chosenIdx","kept","keptIdx","rt","numPic","interval","test","exp","day.and.time","correct","include","first.trial","numPicN","intervalN"
"1","1197","Aug 06 2013","04:24:52",13,0,"New Label",0,"Novel16",0,"Novel16",1,4879,"2","7",1,"Exp 2",15923.1839351852,TRUE,TRUE,TRUE,2,7
"2","1197","Aug 06 2013","04:24:52",14,1,"Same",1,"Novel13",0,"Novel13",0,2345,"2","7",1,"Exp 2",15923.1839351852,TRUE,TRUE,FALSE,2,7
"3","1197","Aug 06 2013","04:24:52",15,2,"New Label",1,"Novel32",1,"Novel109",0,1815,"2","7",1,"Exp 2",15923.1839351852,FALSE,TRUE,FALSE,2,7
"4","1197","Aug 06 2013","04:24:52",16,3,"Same",1,"Novel122",1,"Novel122",1,1718,"2","7",1,"Exp 2",15923.1839351852,TRUE,TRUE,FALSE,2,7
"5","1197","Aug 06 2013","04:24:52",17,4,"New Label",0,"Novel121",1,"Novel103",1,2184,"2","7",1,"Exp 2",15923.1839351852,FALSE,TRUE,FALSE,2,7
"6","1197","Aug 06 2013","04:24:52",18,5,"Same",0,"Novel74",1,"Novel102",1,3219,"2","7",1,"Exp 2",15923.1839351852,FALSE,TRUE,FALSE,2,7
"7","1197","Aug 06 2013","04:24:52",19,6,"New Label",1,"Novel35",1,"Novel35",1,3727,"2","7",1,"Exp 2",15923.1839351852,TRUE,TRUE,FALSE,2,7
"8","1197","Aug 06 2013","04:24:52",20,7,"Same",0,"Novel24",1,"Novel24",0,3658,"2","7",1,"Exp 2",15923.1839351852,TRUE,TRUE,FALSE,2,7
"9","1198","Aug 14 2013","18:46:55",6,0,"Same",1,"Novel14",1,"Novel14",1,1507,"4","0",1,"Exp 2",15931.7825810185,TRUE,TRUE,TRUE,4,0
"10","1198","Aug 14 2013","18:46:55",8,1,"New Label",1,"Novel9",1,"Novel127",2,2615,"4","0",1,"Exp 2",15931.7825810185,FALSE,TRUE,FALSE,4,0
"11","1198","Aug 14 2013","18:46:55",10,2,"Same",0,"Novel95",0,"Novel95",1,1357,"4","0",1,"Exp 2",15931.7825810185,TRUE,TRUE,FALSE,4,0
"12","1198","Aug 14 2013","18:46:55",12,3,"New Label",1,"Novel24",3,"Novel5",1,5366,"4","0",1,"Exp 2",15931.7825810185,FALSE,TRUE,FALSE,4,0
"13","1198","Aug 14 2013","18:46:55",14,4,"Same",1,"Novel139",3,"Novel139",3,1100,"4","0",1,"Exp 2",15931.7825810185,TRUE,TRUE,FALSE,4,0
"14","1198","Aug 14 2013","18:46:55",16,5,"New Label",0,"Novel111",3,"Novel23",0,1639,"4","0",1,"Exp 2",15931.7825810185,FALSE,TRUE,FALSE,4,0
"15","1198","Aug 14 2013","18:46:55",18,6,"Same",0,"Novel125",1,"Novel125",2,980,"4","0",1,"Exp 2",15931.7825810185,TRUE,TRUE,FALSE,4,0
"16","1198","Aug 14 2013","18:46:55",20,7,"New Label",0,"Novel19",1,"Novel90",1,3451,"4","0",1,"Exp 2",15931.7825810185,FALSE,TRUE,FALSE,4,0
"17","1199","Aug 05 2013","23:25:59",9,0,"Same",1,"Novel121",3,"Novel121",3,1832,"8","3",1,"Exp 2",15922.9763773148,TRUE,TRUE,TRUE,8,3
"18","1199","Aug 05 2013","23:25:59",10,1,"New Label",1,"Novel11",4,"Novel7",3,4566,"8","3",1,"Exp 2",15922.9763773148,FALSE,TRUE,FALSE,8,3
"19","1199","Aug 05 2013","23:25:59",11,2,"Same",1,"Novel130",4,"Novel1",3,9072,"8","3",1,"Exp 2",15922.9763773148,FALSE,TRUE,FALSE,8,3
"20","1199","Aug 05 2013","23:25:59",12,3,"New Label",1,"Novel78",4,"Novel92",7,3613,"8","3",1,"Exp 2",15922.9763773148,FALSE,TRUE,FALSE,8,3
"21","1199","Aug 05 2013","23:25:59",17,4,"Same",0,"Novel87",1,"Novel59",6,2980,"8","3",1,"Exp 2",15922.9763773148,FALSE,TRUE,FALSE,8,3
"22","1199","Aug 05 2013","23:25:59",18,5,"New Label",0,"Novel35",6,"Novel8",2,2716,"8","3",1,"Exp 2",15922.9763773148,FALSE,TRUE,FALSE,8,3
"23","1199","Aug 05 2013","23:25:59",19,6,"Same",0,"Novel110",5,"Novel12",1,5113,"8","3",1,"Exp 2",15922.9763773148,FALSE,TRUE,FALSE,8,3
"24","1199","Aug 05 2013","23:25:59",20,7,"New Label",0,"Novel24",1,"Novel66",0,3122,"8","3",1,"Exp 2",15922.9763773148,FALSE,TRUE,FALSE,8,3
"25","1200","Aug 10 2013","11:59:57",13,0,"Same",1,"Novel106",1,"Novel106",1,2302,"4","7",1,"Exp 2",15927.4999652778,TRUE,TRUE,TRUE,4,7
"26","1200","Aug 10 2013","11:59:57",14,1,"New Label",0,"Novel19",0,"Novel140",1,2537,"4","7",1,"Exp 2",15927.4999652778,FALSE,TRUE,FALSE,4,7
"27","1200","Aug 10 2013","11:59:57",15,2,"Same",0,"Novel28",3,"Novel28",2,2345,"4","7",1,"Exp 2",15927.4999652778,TRUE,TRUE,FALSE,4,7
"28","1200","Aug 10 2013","11:59:57",16,3,"New Label",1,"Novel130",3,"Novel114",2,3090,"4","7",1,"Exp 2",15927.4999652778,FALSE,TRUE,FALSE,4,7
"29","1200","Aug 10 2013","11:59:57",17,4,"Same",0,"Novel45",0,"Novel45",3,4187,"4","7",1,"Exp 2",15927.4999652778,TRUE,TRUE,FALSE,4,7
"30","1200","Aug 10 2013","11:59:57",18,5,"New Label",1,"Novel110",2,"Novel108",1,2323,"4","7",1,"Exp 2",15927.4999652778,FALSE,TRUE,FALSE,4,7
"31","1200","Aug 10 2013","11:59:57",19,6,"Same",1,"Novel17",3,"Novel17",3,1649,"4","7",1,"Exp 2",15927.4999652778,TRUE,TRUE,FALSE,4,7
"32","1200","Aug 10 2013","11:59:57",20,7,"New Label",0,"Novel63",3,"Novel96",3,3562,"4","7",1,"Exp 2",15927.4999652778,FALSE,TRUE,FALSE,4,7
"33","1201","Aug 14 2013","22:24:50",6,0,"Same",0,"Novel122",5,"Novel122",3,2871,"8","0",1,"Exp 2",15931.933912037,TRUE,TRUE,TRUE,8,0
"34","1201","Aug 14 2013","22:24:50",8,1,"New Label",0,"Novel71",7,"Novel35",7,3306,"8","0",1,"Exp 2",15931.933912037,FALSE,TRUE,FALSE,8,0
"35","1201","Aug 14 2013","22:24:50",10,2,"Same",0,"Novel2",2,"Novel2",4,1262,"8","0",1,"Exp 2",15931.933912037,TRUE,TRUE,FALSE,8,0
"36","1201","Aug 14 2013","22:24:50",12,3,"New Label",1,"Novel22",0,"Novel81",5,5335,"8","0",1,"Exp 2",15931.933912037,FALSE,TRUE,FALSE,8,0
"37","1201","Aug 14 2013","22:24:50",14,4,"Same",1,"Novel32",1,"Novel32",1,1895,"8","0",1,"Exp 2",15931.933912037,TRUE,TRUE,FALSE,8,0
"38","1201","Aug 14 2013","22:24:50",16,5,"New Label",0,"Novel87",6,"Novel31",7,2707,"8","0",1,"Exp 2",15931.933912037,FALSE,TRUE,FALSE,8,0
"39","1201","Aug 14 2013","22:24:50",18,6,"Same",1,"Novel85",5,"Novel85",5,1013,"8","0",1,"Exp 2",15931.933912037,TRUE,TRUE,FALSE,8,0
"40","1201","Aug 14 2013","22:24:50",20,7,"New Label",1,"Novel47",7,"Novel26",6,4925,"8","0",1,"Exp 2",15931.933912037,FALSE,TRUE,FALSE,8,0
"41","1202","Aug 05 2013","23:28:47",9,0,"New Label",0,"Novel125",1,"Novel129",0,1736,"4","3",1,"Exp 2",15922.9783217593,FALSE,TRUE,TRUE,4,3
"42","1202","Aug 05 2013","23:28:47",10,1,"Same",1,"Novel50",0,"Novel50",0,1954,"4","3",1,"Exp 2",15922.9783217593,TRUE,TRUE,FALSE,4,3
"43","1202","Aug 05 2013","23:28:47",11,2,"New Label",1,"Novel21",2,"Novel108",1,1559,"4","3",1,"Exp 2",15922.9783217593,FALSE,TRUE,FALSE,4,3
"44","1202","Aug 05 2013","23:28:47",12,3,"Same",1,"Novel113",0,"Novel113",0,3179,"4","3",1,"Exp 2",15922.9783217593,TRUE,TRUE,FALSE,4,3
"45","1202","Aug 05 2013","23:28:47",17,4,"New Label",1,"Novel28",1,"Novel28",1,2633,"4","3",1,"Exp 2",15922.9783217593,TRUE,TRUE,FALSE,4,3
"46","1202","Aug 05 2013","23:28:47",18,5,"Same",0,"Novel88",3,"Novel88",1,1167,"4","3",1,"Exp 2",15922.9783217593,TRUE,TRUE,FALSE,4,3
"47","1202","Aug 05 2013","23:28:47",19,6,"New Label",0,"Novel38",2,"Novel38",1,1617,"4","3",1,"Exp 2",15922.9783217593,TRUE,TRUE,FALSE,4,3
"48","1202","Aug 05 2013","23:28:47",20,7,"Same",0,"Novel91",1,"Novel91",0,956,"4","3",1,"Exp 2",15922.9783217593,TRUE,TRUE,FALSE,4,3
"49","1203","Aug 10 2013","10:04:14",7,0,"New Label",0,"Novel7",0,"Novel69",0,1788,"3","1",1,"Exp 2",15927.4196064815,FALSE,TRUE,TRUE,3,1
"50","1203","Aug 10 2013","10:04:14",8,1,"Same",1,"Novel87",1,"Novel87",1,3244,"3","1",1,"Exp 2",15927.4196064815,TRUE,TRUE,FALSE,3,1
"51","1203","Aug 10 2013","10:04:14",11,2,"New Label",1,"Novel120",0,"Novel120",0,2620,"3","1",1,"Exp 2",15927.4196064815,TRUE,TRUE,FALSE,3,1
"52","1203","Aug 10 2013","10:04:14",12,3,"Same",1,"Novel72",2,"Novel72",2,1068,"3","1",1,"Exp 2",15927.4196064815,TRUE,TRUE,FALSE,3,1
"53","1203","Aug 10 2013","10:04:14",15,4,"New Label",0,"Novel82",1,"Novel82",2,4068,"3","1",1,"Exp 2",15927.4196064815,TRUE,TRUE,FALSE,3,1
"54","1203","Aug 10 2013","10:04:14",16,5,"Same",0,"Novel113",2,"Novel113",1,1556,"3","1",1,"Exp 2",15927.4196064815,TRUE,TRUE,FALSE,3,1
"55","1203","Aug 10 2013","10:04:14",19,6,"New Label",1,"Novel43",1,"Novel105",0,3286,"3","1",1,"Exp 2",15927.4196064815,FALSE,TRUE,FALSE,3,1
"56","1203","Aug 10 2013","10:04:14",20,7,"Same",0,"Novel57",2,"Novel57",0,2591,"3","1",1,"Exp 2",15927.4196064815,TRUE,TRUE,FALSE,3,1
"57","1204","Aug 14 2013","21:47:26",6,0,"New Label",0,"Novel33",4,"Novel70",2,7798,"8","0",1,"Exp 2",15931.9079398148,FALSE,TRUE,TRUE,8,0
"58","1204","Aug 14 2013","21:47:26",8,1,"Same",1,"Novel15",1,"Novel15",1,1659,"8","0",1,"Exp 2",15931.9079398148,TRUE,TRUE,FALSE,8,0
"59","1204","Aug 14 2013","21:47:26",10,2,"New Label",0,"Novel120",0,"Novel76",5,7008,"8","0",1,"Exp 2",15931.9079398148,FALSE,TRUE,FALSE,8,0
"60","1204","Aug 14 2013","21:47:26",12,3,"Same",1,"Novel128",5,"Novel128",5,1506,"8","0",1,"Exp 2",15931.9079398148,TRUE,TRUE,FALSE,8,0
"61","1204","Aug 14 2013","21:47:26",14,4,"New Label",1,"Novel38",4,"Novel14",7,3739,"8","0",1,"Exp 2",15931.9079398148,FALSE,TRUE,FALSE,8,0
"62","1204","Aug 14 2013","21:47:26",16,5,"Same",0,"Novel5",1,"Novel80",1,1174,"8","0",1,"Exp 2",15931.9079398148,FALSE,TRUE,FALSE,8,0
"63","1204","Aug 14 2013","21:47:26",18,6,"New Label",1,"Novel21",4,"Novel60",1,3705,"8","0",1,"Exp 2",15931.9079398148,FALSE,TRUE,FALSE,8,0
"64","1204","Aug 14 2013","21:47:26",20,7,"Same",0,"Novel44",4,"Novel44",3,1715,"8","0",1,"Exp 2",15931.9079398148,TRUE,TRUE,FALSE,8,0
"65","1205","Aug 09 2013","12:21:43",9,0,"Same",0,"Novel136",1,"Novel136",0,1146,"2","3",1,"Exp 2",15926.5150810185,TRUE,TRUE,TRUE,2,3
"66","1205","Aug 09 2013","12:21:43",10,1,"New Label",0,"Novel91",1,"Novel91",0,2750,"2","3",1,"Exp 2",15926.5150810185,TRUE,TRUE,FALSE,2,3
"67","1205","Aug 09 2013","12:21:43",11,2,"Same",1,"Novel101",0,"Novel90",1,2005,"2","3",1,"Exp 2",15926.5150810185,FALSE,TRUE,FALSE,2,3
"68","1205","Aug 09 2013","12:21:43",12,3,"New Label",0,"Novel30",1,"Novel135",1,1909,"2","3",1,"Exp 2",15926.5150810185,FALSE,TRUE,FALSE,2,3
"69","1205","Aug 09 2013","12:21:43",17,4,"Same",1,"Novel53",1,"Novel53",1,778,"2","3",1,"Exp 2",15926.5150810185,TRUE,TRUE,FALSE,2,3
"70","1205","Aug 09 2013","12:21:43",18,5,"New Label",1,"Novel56",0,"Novel117",1,1272,"2","3",1,"Exp 2",15926.5150810185,FALSE,TRUE,FALSE,2,3
"71","1205","Aug 09 2013","12:21:43",19,6,"Same",0,"Novel70",1,"Novel70",0,1063,"2","3",1,"Exp 2",15926.5150810185,TRUE,TRUE,FALSE,2,3
"72","1205","Aug 09 2013","12:21:43",20,7,"New Label",1,"Novel13",0,"Novel27",1,1465,"2","3",1,"Exp 2",15926.5150810185,FALSE,TRUE,FALSE,2,3
"73","1206","Aug 05 2013","23:51:18",13,0,"New Label",0,"Novel49",2,"Novel89",1,2176,"3","7",1,"Exp 2",15922.9939583333,FALSE,TRUE,TRUE,3,7
"74","1206","Aug 05 2013","23:51:18",14,1,"Same",1,"Novel123",2,"Novel123",2,1674,"3","7",1,"Exp 2",15922.9939583333,TRUE,TRUE,FALSE,3,7
"75","1206","Aug 05 2013","23:51:18",15,2,"New Label",0,"Novel92",1,"Novel87",2,1496,"3","7",1,"Exp 2",15922.9939583333,FALSE,TRUE,FALSE,3,7
"76","1206","Aug 05 2013","23:51:18",16,3,"Same",0,"Novel61",0,"Novel61",1,2553,"3","7",1,"Exp 2",15922.9939583333,TRUE,TRUE,FALSE,3,7
"77","1206","Aug 05 2013","23:51:18",17,4,"New Label",1,"Novel96",2,"Novel27",0,2962,"3","7",1,"Exp 2",15922.9939583333,FALSE,TRUE,FALSE,3,7
"78","1206","Aug 05 2013","23:51:18",18,5,"Same",0,"Novel126",2,"Novel22",0,2065,"3","7",1,"Exp 2",15922.9939583333,FALSE,TRUE,FALSE,3,7
"79","1206","Aug 05 2013","23:51:18",19,6,"New Label",1,"Novel15",2,"Novel15",2,2321,"3","7",1,"Exp 2",15922.9939583333,TRUE,TRUE,FALSE,3,7
"80","1206","Aug 05 2013","23:51:18",20,7,"Same",1,"Novel36",1,"Novel79",0,3144,"3","7",1,"Exp 2",15922.9939583333,FALSE,TRUE,FALSE,3,7
"81","1207","Aug 14 2013","23:52:05",6,0,"Same",1,"Novel15",1,"Novel15",1,1352,"2","0",1,"Exp 2",15931.9945023148,TRUE,TRUE,TRUE,2,0
"82","1207","Aug 14 2013","23:52:05",8,1,"New Label",1,"Novel56",0,"Novel56",0,1618,"2","0",1,"Exp 2",15931.9945023148,TRUE,TRUE,FALSE,2,0
"83","1207","Aug 14 2013","23:52:05",10,2,"Same",0,"Novel94",1,"Novel94",0,926,"2","0",1,"Exp 2",15931.9945023148,TRUE,TRUE,FALSE,2,0
"84","1207","Aug 14 2013","23:52:05",12,3,"New Label",0,"Novel7",1,"Novel63",1,2927,"2","0",1,"Exp 2",15931.9945023148,FALSE,TRUE,FALSE,2,0
"85","1207","Aug 14 2013","23:52:05",14,4,"Same",0,"Novel18",1,"Novel18",0,1268,"2","0",1,"Exp 2",15931.9945023148,TRUE,TRUE,FALSE,2,0
"86","1207","Aug 14 2013","23:52:05",16,5,"New Label",0,"Novel132",1,"Novel132",0,3421,"2","0",1,"Exp 2",15931.9945023148,TRUE,TRUE,FALSE,2,0
"87","1207","Aug 14 2013","23:52:05",18,6,"Same",1,"Novel74",0,"Novel74",0,402,"2","0",1,"Exp 2",15931.9945023148,TRUE,TRUE,FALSE,2,0
"88","1207","Aug 14 2013","23:52:05",20,7,"New Label",1,"Novel77",0,"Novel77",0,1296,"2","0",1,"Exp 2",15931.9945023148,TRUE,TRUE,FALSE,2,0
"89","1208","Aug 10 2013","15:03:26",13,0,"Same",1,"Novel48",1,"Novel30",4,1268,"8","7",1,"Exp 2",15927.6273842593,FALSE,TRUE,TRUE,8,7
"90","1208","Aug 10 2013","15:03:26",14,1,"New Label",0,"Novel31",0,"Novel32",1,2119,"8","7",1,"Exp 2",15927.6273842593,FALSE,TRUE,FALSE,8,7
"91","1208","Aug 10 2013","15:03:26",15,2,"Same",0,"Novel128",7,"Novel128",3,3883,"8","7",1,"Exp 2",15927.6273842593,TRUE,TRUE,FALSE,8,7
"92","1208","Aug 10 2013","15:03:26",16,3,"New Label",1,"Novel18",2,"Novel125",7,2591,"8","7",1,"Exp 2",15927.6273842593,FALSE,TRUE,FALSE,8,7
"93","1208","Aug 10 2013","15:03:26",17,4,"Same",1,"Novel138",2,"Novel91",6,4923,"8","7",1,"Exp 2",15927.6273842593,FALSE,TRUE,FALSE,8,7
"94","1208","Aug 10 2013","15:03:26",18,5,"New Label",1,"Novel67",5,"Novel35",0,2453,"8","7",1,"Exp 2",15927.6273842593,FALSE,TRUE,FALSE,8,7
"95","1208","Aug 10 2013","15:03:26",19,6,"Same",0,"Novel15",3,"Novel15",2,2354,"8","7",1,"Exp 2",15927.6273842593,TRUE,TRUE,FALSE,8,7
"96","1208","Aug 10 2013","15:03:26",20,7,"New Label",0,"Novel10",5,"Novel11",4,3508,"8","7",1,"Exp 2",15927.6273842593,FALSE,TRUE,FALSE,8,7
"97","1209","Aug 06 2013","03:07:37",9,0,"Same",1,"Novel132",7,"Novel132",7,1248,"8","3",1,"Exp 2",15923.1302893519,TRUE,TRUE,TRUE,8,3
"98","1209","Aug 06 2013","03:07:37",10,1,"New Label",0,"Novel17",2,"Novel102",6,4522,"8","3",1,"Exp 2",15923.1302893519,FALSE,TRUE,FALSE,8,3
"99","1209","Aug 06 2013","03:07:37",11,2,"Same",1,"Novel84",7,"Novel84",7,2277,"8","3",1,"Exp 2",15923.1302893519,TRUE,TRUE,FALSE,8,3
"100","1209","Aug 06 2013","03:07:37",12,3,"New Label",0,"Novel19",1,"Novel19",2,3809,"8","3",1,"Exp 2",15923.1302893519,TRUE,TRUE,FALSE,8,3
"101","1209","Aug 06 2013","03:07:37",17,4,"Same",0,"Novel66",6,"Novel66",5,2824,"8","3",1,"Exp 2",15923.1302893519,TRUE,TRUE,FALSE,8,3
"102","1209","Aug 06 2013","03:07:37",18,5,"New Label",1,"Novel18",7,"Novel25",5,2846,"8","3",1,"Exp 2",15923.1302893519,FALSE,TRUE,FALSE,8,3
"103","1209","Aug 06 2013","03:07:37",19,6,"Same",0,"Novel124",6,"Novel124",0,1703,"8","3",1,"Exp 2",15923.1302893519,TRUE,TRUE,FALSE,8,3
"104","1209","Aug 06 2013","03:07:37",20,7,"New Label",1,"Novel118",3,"Novel38",0,3003,"8","3",1,"Exp 2",15923.1302893519,FALSE,TRUE,FALSE,8,3
"105","1210","Aug 06 2013","02:36:35",9,0,"Same",0,"Novel43",5,"Novel5",2,98,"8","3",1,"Exp 2",15923.1087384259,FALSE,TRUE,TRUE,8,3
"106","1210","Aug 06 2013","02:36:35",10,1,"New Label",1,"Novel1",0,"Novel78",6,776,"8","3",1,"Exp 2",15923.1087384259,FALSE,TRUE,FALSE,8,3
"107","1210","Aug 06 2013","02:36:35",11,2,"Same",0,"Novel122",0,"Novel127",6,1082,"8","3",1,"Exp 2",15923.1087384259,FALSE,TRUE,FALSE,8,3
"108","1210","Aug 06 2013","02:36:35",12,3,"New Label",1,"Novel34",0,"Novel76",3,1820,"8","3",1,"Exp 2",15923.1087384259,FALSE,TRUE,FALSE,8,3
"109","1210","Aug 06 2013","02:36:35",17,4,"Same",1,"Novel57",0,"Novel11",1,401,"8","3",1,"Exp 2",15923.1087384259,FALSE,TRUE,FALSE,8,3
"110","1210","Aug 06 2013","02:36:35",18,5,"New Label",0,"Novel89",5,"Novel29",3,615,"8","3",1,"Exp 2",15923.1087384259,FALSE,TRUE,FALSE,8,3
"111","1210","Aug 06 2013","02:36:35",19,6,"Same",1,"Novel100",5,"Novel82",1,650,"8","3",1,"Exp 2",15923.1087384259,FALSE,TRUE,FALSE,8,3
"112","1210","Aug 06 2013","02:36:35",20,7,"New Label",0,"Novel27",6,"Novel88",6,989,"8","3",1,"Exp 2",15923.1087384259,FALSE,TRUE,FALSE,8,3
"113","1211","Aug 15 2013","01:01:43",6,0,"Same",1,"Novel14",1,"Novel14",1,2141,"4","0",1,"Exp 2",15932.0428587963,TRUE,TRUE,TRUE,4,0
"114","1211","Aug 15 2013","01:01:43",8,1,"New Label",1,"Novel49",1,"Novel88",0,2653,"4","0",1,"Exp 2",15932.0428587963,FALSE,TRUE,FALSE,4,0
"115","1211","Aug 15 2013","01:01:43",10,2,"Same",0,"Novel120",1,"Novel120",0,2469,"4","0",1,"Exp 2",15932.0428587963,TRUE,TRUE,FALSE,4,0
"116","1211","Aug 15 2013","01:01:43",12,3,"New Label",1,"Novel119",1,"Novel119",1,4022,"4","0",1,"Exp 2",15932.0428587963,TRUE,TRUE,FALSE,4,0
"117","1211","Aug 15 2013","01:01:43",14,4,"Same",0,"Novel99",2,"Novel99",0,2146,"4","0",1,"Exp 2",15932.0428587963,TRUE,TRUE,FALSE,4,0
"118","1211","Aug 15 2013","01:01:43",16,5,"New Label",0,"Novel105",0,"Novel4",0,4003,"4","0",1,"Exp 2",15932.0428587963,FALSE,TRUE,FALSE,4,0
"119","1211","Aug 15 2013","01:01:43",18,6,"Same",1,"Novel62",0,"Novel62",0,2307,"4","0",1,"Exp 2",15932.0428587963,TRUE,TRUE,FALSE,4,0
"120","1211","Aug 15 2013","01:01:43",20,7,"New Label",0,"Novel35",2,"Novel24",1,5712,"4","0",1,"Exp 2",15932.0428587963,FALSE,TRUE,FALSE,4,0
"121","1212","Aug 05 2013","18:14:45",7,0,"New Label",1,"Novel123",0,"Novel123",0,3332,"2","1",1,"Exp 2",15922.7602430556,TRUE,TRUE,TRUE,2,1
"122","1212","Aug 05 2013","18:14:45",8,1,"Same",1,"Novel80",0,"Novel80",0,1858,"2","1",1,"Exp 2",15922.7602430556,TRUE,TRUE,FALSE,2,1
"123","1212","Aug 05 2013","18:14:45",11,2,"New Label",0,"Novel130",0,"Novel114",0,1427,"2","1",1,"Exp 2",15922.7602430556,FALSE,TRUE,FALSE,2,1
"124","1212","Aug 05 2013","18:14:45",12,3,"Same",0,"Novel63",1,"Novel63",0,1548,"2","1",1,"Exp 2",15922.7602430556,TRUE,TRUE,FALSE,2,1
"125","1212","Aug 05 2013","18:14:45",15,4,"New Label",1,"Novel116",0,"Novel42",1,1396,"2","1",1,"Exp 2",15922.7602430556,FALSE,TRUE,FALSE,2,1
"126","1212","Aug 05 2013","18:14:45",16,5,"Same",1,"Novel32",1,"Novel32",1,968,"2","1",1,"Exp 2",15922.7602430556,TRUE,TRUE,FALSE,2,1
"127","1212","Aug 05 2013","18:14:45",19,6,"New Label",0,"Novel109",0,"Novel137",0,1459,"2","1",1,"Exp 2",15922.7602430556,FALSE,TRUE,FALSE,2,1
"128","1212","Aug 05 2013","18:14:45",20,7,"Same",0,"Novel102",0,"Novel102",1,1766,"2","1",1,"Exp 2",15922.7602430556,TRUE,TRUE,FALSE,2,1
"129","1213","Aug 10 2013","15:19:38",13,0,"Same",0,"Novel55",7,"Novel55",5,2563,"8","7",1,"Exp 2",15927.6386342593,TRUE,TRUE,TRUE,8,7
"130","1213","Aug 10 2013","15:19:38",14,1,"New Label",0,"Novel15",7,"Novel17",7,3397,"8","7",1,"Exp 2",15927.6386342593,FALSE,TRUE,FALSE,8,7
"131","1213","Aug 10 2013","15:19:38",15,2,"Same",1,"Novel9",6,"Novel9",6,2021,"8","7",1,"Exp 2",15927.6386342593,TRUE,TRUE,FALSE,8,7
"132","1213","Aug 10 2013","15:19:38",16,3,"New Label",1,"Novel53",2,"Novel129",5,2131,"8","7",1,"Exp 2",15927.6386342593,FALSE,TRUE,FALSE,8,7
"133","1213","Aug 10 2013","15:19:38",17,4,"Same",1,"Novel126",2,"Novel5",3,6756,"8","7",1,"Exp 2",15927.6386342593,FALSE,TRUE,FALSE,8,7
"134","1213","Aug 10 2013","15:19:38",18,5,"New Label",0,"Novel112",5,"Novel110",4,4520,"8","7",1,"Exp 2",15927.6386342593,FALSE,TRUE,FALSE,8,7
"135","1213","Aug 10 2013","15:19:38",19,6,"Same",0,"Novel16",5,"Novel16",6,2469,"8","7",1,"Exp 2",15927.6386342593,TRUE,TRUE,FALSE,8,7
"136","1213","Aug 10 2013","15:19:38",20,7,"New Label",1,"Novel135",3,"Novel135",3,10569,"8","7",1,"Exp 2",15927.6386342593,TRUE,TRUE,FALSE,8,7
"137","1214","Aug 14 2013","22:30:24",6,0,"New Label",0,"Novel100",2,"Novel65",6,776,"8","0",1,"Exp 2",15931.9377777778,FALSE,TRUE,TRUE,8,0
"138","1214","Aug 14 2013","22:30:24",8,1,"Same",0,"Novel87",2,"Novel79",2,984,"8","0",1,"Exp 2",15931.9377777778,FALSE,TRUE,FALSE,8,0
"139","1214","Aug 14 2013","22:30:24",10,2,"New Label",1,"Novel97",2,"Novel108",1,842,"8","0",1,"Exp 2",15931.9377777778,FALSE,TRUE,FALSE,8,0
"140","1214","Aug 14 2013","22:30:24",12,3,"Same",1,"Novel58",2,"Novel58",2,1174,"8","0",1,"Exp 2",15931.9377777778,TRUE,TRUE,FALSE,8,0
"141","1214","Aug 14 2013","22:30:24",14,4,"New Label",0,"Novel84",3,"Novel31",3,1274,"8","0",1,"Exp 2",15931.9377777778,FALSE,TRUE,FALSE,8,0
"142","1214","Aug 14 2013","22:30:24",16,5,"Same",1,"Novel67",5,"Novel39",1,968,"8","0",1,"Exp 2",15931.9377777778,FALSE,TRUE,FALSE,8,0
"143","1214","Aug 14 2013","22:30:24",18,6,"New Label",1,"Novel75",3,"Novel18",1,1549,"8","0",1,"Exp 2",15931.9377777778,FALSE,TRUE,FALSE,8,0
"144","1214","Aug 14 2013","22:30:24",20,7,"Same",0,"Novel34",0,"Novel83",0,933,"8","0",1,"Exp 2",15931.9377777778,FALSE,TRUE,FALSE,8,0
"145","1215","Aug 14 2013","16:27:49",6,0,"Same",0,"Novel83",7,"Novel83",3,2616,"8","0",1,"Exp 2",15931.6859837963,TRUE,TRUE,TRUE,8,0
"146","1215","Aug 14 2013","16:27:49",8,1,"New Label",0,"Novel89",1,"Novel131",2,6630,"8","0",1,"Exp 2",15931.6859837963,FALSE,TRUE,FALSE,8,0
"147","1215","Aug 14 2013","16:27:49",10,2,"Same",0,"Novel95",1,"Novel95",0,2722,"8","0",1,"Exp 2",15931.6859837963,TRUE,TRUE,FALSE,8,0
"148","1215","Aug 14 2013","16:27:49",12,3,"New Label",1,"Novel49",4,"Novel133",3,4478,"8","0",1,"Exp 2",15931.6859837963,FALSE,TRUE,FALSE,8,0
"149","1215","Aug 14 2013","16:27:49",14,4,"Same",1,"Novel15",1,"Novel15",1,2845,"8","0",1,"Exp 2",15931.6859837963,TRUE,TRUE,FALSE,8,0
"150","1215","Aug 14 2013","16:27:49",16,5,"New Label",0,"Novel94",5,"Novel100",0,6874,"8","0",1,"Exp 2",15931.6859837963,FALSE,TRUE,FALSE,8,0
"151","1215","Aug 14 2013","16:27:49",18,6,"Same",1,"Novel4",6,"Novel4",6,2572,"8","0",1,"Exp 2",15931.6859837963,TRUE,TRUE,FALSE,8,0
"152","1215","Aug 14 2013","16:27:49",20,7,"New Label",1,"Novel11",1,"Novel69",4,5702,"8","0",1,"Exp 2",15931.6859837963,FALSE,TRUE,FALSE,8,0
"153","1216","Aug 05 2013","21:40:16",7,0,"New Label",0,"Novel12",1,"Novel68",4,1687,"8","1",1,"Exp 2",15922.902962963,FALSE,TRUE,TRUE,8,1
"154","1216","Aug 05 2013","21:40:16",8,1,"Same",1,"Novel1",3,"Novel1",3,5730,"8","1",1,"Exp 2",15922.902962963,TRUE,TRUE,FALSE,8,1
"155","1216","Aug 05 2013","21:40:16",11,2,"New Label",1,"Novel56",4,"Novel82",0,1513,"8","1",1,"Exp 2",15922.902962963,FALSE,TRUE,FALSE,8,1
"156","1216","Aug 05 2013","21:40:16",12,3,"Same",0,"Novel49",1,"Novel49",0,4544,"8","1",1,"Exp 2",15922.902962963,TRUE,TRUE,FALSE,8,1
"157","1216","Aug 05 2013","21:40:16",15,4,"New Label",1,"Novel25",6,"Novel25",6,1546,"8","1",1,"Exp 2",15922.902962963,TRUE,TRUE,FALSE,8,1
"158","1216","Aug 05 2013","21:40:16",16,5,"Same",1,"Novel47",0,"Novel47",0,4932,"8","1",1,"Exp 2",15922.902962963,TRUE,TRUE,FALSE,8,1
"159","1216","Aug 05 2013","21:40:16",19,6,"New Label",0,"Novel66",6,"Novel28",5,1381,"8","1",1,"Exp 2",15922.902962963,FALSE,TRUE,FALSE,8,1
"160","1216","Aug 05 2013","21:40:16",20,7,"Same",0,"Novel58",2,"Novel58",7,2572,"8","1",1,"Exp 2",15922.902962963,TRUE,TRUE,FALSE,8,1
"161","1217","Aug 05 2013","23:59:31",9,0,"New Label",1,"Novel103",0,"Novel103",0,6155,"4","3",1,"Exp 2",15922.9996643519,TRUE,TRUE,TRUE,4,3
"162","1217","Aug 05 2013","23:59:31",10,1,"Same",1,"Novel101",3,"Novel101",3,3273,"4","3",1,"Exp 2",15922.9996643519,TRUE,TRUE,FALSE,4,3
"163","1217","Aug 05 2013","23:59:31",11,2,"New Label",1,"Novel60",3,"Novel116",1,8166,"4","3",1,"Exp 2",15922.9996643519,FALSE,TRUE,FALSE,4,3
"164","1217","Aug 05 2013","23:59:31",12,3,"Same",0,"Novel125",2,"Novel125",0,3737,"4","3",1,"Exp 2",15922.9996643519,TRUE,TRUE,FALSE,4,3
"165","1217","Aug 05 2013","23:59:31",17,4,"New Label",0,"Novel84",0,"Novel93",0,8876,"4","3",1,"Exp 2",15922.9996643519,FALSE,TRUE,FALSE,4,3
"166","1217","Aug 05 2013","23:59:31",18,5,"Same",1,"Novel34",1,"Novel34",1,3129,"4","3",1,"Exp 2",15922.9996643519,TRUE,TRUE,FALSE,4,3
"167","1217","Aug 05 2013","23:59:31",19,6,"New Label",0,"Novel12",1,"Novel20",0,7822,"4","3",1,"Exp 2",15922.9996643519,FALSE,TRUE,FALSE,4,3
"168","1217","Aug 05 2013","23:59:31",20,7,"Same",0,"Novel97",0,"Novel97",3,5058,"4","3",1,"Exp 2",15922.9996643519,TRUE,TRUE,FALSE,4,3
"169","1218","Aug 14 2013","18:32:02",6,0,"Same",0,"Novel103",0,"Novel103",1,1609,"3","0",1,"Exp 2",15931.7722453704,TRUE,TRUE,TRUE,3,0
"170","1218","Aug 14 2013","18:32:02",8,1,"New Label",0,"Novel59",1,"Novel107",1,5223,"3","0",1,"Exp 2",15931.7722453704,FALSE,TRUE,FALSE,3,0
"171","1218","Aug 14 2013","18:32:02",10,2,"Same",0,"Novel102",1,"Novel102",0,1622,"3","0",1,"Exp 2",15931.7722453704,TRUE,TRUE,FALSE,3,0
"172","1218","Aug 14 2013","18:32:02",12,3,"New Label",0,"Novel24",1,"Novel58",1,3339,"3","0",1,"Exp 2",15931.7722453704,FALSE,TRUE,FALSE,3,0
"173","1218","Aug 14 2013","18:32:02",14,4,"Same",1,"Novel127",2,"Novel95",1,1129,"3","0",1,"Exp 2",15931.7722453704,FALSE,TRUE,FALSE,3,0
"174","1218","Aug 14 2013","18:32:02",16,5,"New Label",1,"Novel51",2,"Novel6",0,4474,"3","0",1,"Exp 2",15931.7722453704,FALSE,TRUE,FALSE,3,0
"175","1218","Aug 14 2013","18:32:02",18,6,"Same",1,"Novel132",1,"Novel132",1,1060,"3","0",1,"Exp 2",15931.7722453704,TRUE,TRUE,FALSE,3,0
"176","1218","Aug 14 2013","18:32:02",20,7,"New Label",1,"Novel16",2,"Novel72",0,2557,"3","0",1,"Exp 2",15931.7722453704,FALSE,TRUE,FALSE,3,0
"177","1219","Aug 05 2013","18:16:10",7,0,"Same",0,"Novel23",1,"Novel23",0,3279,"2","1",1,"Exp 2",15922.7612268519,TRUE,TRUE,TRUE,2,1
"178","1219","Aug 05 2013","18:16:10",8,1,"New Label",0,"Novel126",1,"Novel33",1,1369,"2","1",1,"Exp 2",15922.7612268519,FALSE,TRUE,FALSE,2,1
"179","1219","Aug 05 2013","18:16:10",11,2,"Same",0,"Novel111",0,"Novel111",1,1973,"2","1",1,"Exp 2",15922.7612268519,TRUE,TRUE,FALSE,2,1
"180","1219","Aug 05 2013","18:16:10",12,3,"New Label",0,"Novel55",1,"Novel54",1,2254,"2","1",1,"Exp 2",15922.7612268519,FALSE,TRUE,FALSE,2,1
"181","1219","Aug 05 2013","18:16:10",15,4,"Same",1,"Novel78",0,"Novel78",0,1598,"2","1",1,"Exp 2",15922.7612268519,TRUE,TRUE,FALSE,2,1
"182","1219","Aug 05 2013","18:16:10",16,5,"New Label",1,"Novel88",0,"Novel88",0,2860,"2","1",1,"Exp 2",15922.7612268519,TRUE,TRUE,FALSE,2,1
"183","1219","Aug 05 2013","18:16:10",19,6,"Same",1,"Novel66",1,"Novel66",1,1117,"2","1",1,"Exp 2",15922.7612268519,TRUE,TRUE,FALSE,2,1
"184","1219","Aug 05 2013","18:16:10",20,7,"New Label",1,"Novel37",0,"Novel128",1,1557,"2","1",1,"Exp 2",15922.7612268519,FALSE,TRUE,FALSE,2,1
"185","1220","Aug 05 2013","21:50:18",7,0,"New Label",0,"Novel36",7,"Novel78",6,6080,"8","1",1,"Exp 2",15922.9099305556,FALSE,TRUE,TRUE,8,1
"186","1220","Aug 05 2013","21:50:18",8,1,"Same",0,"Novel38",7,"Novel131",2,7770,"8","1",1,"Exp 2",15922.9099305556,FALSE,TRUE,FALSE,8,1
"187","1220","Aug 05 2013","21:50:18",11,2,"New Label",1,"Novel64",7,"Novel107",2,5418,"8","1",1,"Exp 2",15922.9099305556,FALSE,TRUE,FALSE,8,1
"188","1220","Aug 05 2013","21:50:18",12,3,"Same",1,"Novel5",2,"Novel5",2,7617,"8","1",1,"Exp 2",15922.9099305556,TRUE,TRUE,FALSE,8,1
"189","1220","Aug 05 2013","21:50:18",15,4,"New Label",1,"Novel99",6,"Novel97",7,3910,"8","1",1,"Exp 2",15922.9099305556,FALSE,TRUE,FALSE,8,1
"190","1220","Aug 05 2013","21:50:18",16,5,"Same",1,"Novel9",1,"Novel121",4,2400,"8","1",1,"Exp 2",15922.9099305556,FALSE,TRUE,FALSE,8,1
"191","1220","Aug 05 2013","21:50:18",19,6,"New Label",0,"Novel42",1,"Novel42",0,1260,"8","1",1,"Exp 2",15922.9099305556,TRUE,TRUE,FALSE,8,1
"192","1220","Aug 05 2013","21:50:18",20,7,"Same",0,"Novel31",5,"Novel31",4,2138,"8","1",1,"Exp 2",15922.9099305556,TRUE,TRUE,FALSE,8,1
"193","1221","Aug 05 2013","22:00:02",9,0,"Same",1,"Novel43",2,"Novel43",2,2605,"3","3",1,"Exp 2",15922.9166898148,TRUE,TRUE,TRUE,3,3
"194","1221","Aug 05 2013","22:00:02",10,1,"New Label",0,"Novel116",0,"Novel13",0,2013,"3","3",1,"Exp 2",15922.9166898148,FALSE,TRUE,FALSE,3,3
"195","1221","Aug 05 2013","22:00:02",11,2,"Same",1,"Novel23",1,"Novel23",1,2497,"3","3",1,"Exp 2",15922.9166898148,TRUE,TRUE,FALSE,3,3
"196","1221","Aug 05 2013","22:00:02",12,3,"New Label",0,"Novel48",0,"Novel10",0,1652,"3","3",1,"Exp 2",15922.9166898148,FALSE,TRUE,FALSE,3,3
"197","1221","Aug 05 2013","22:00:02",17,4,"Same",0,"Novel61",2,"Novel61",1,1934,"3","3",1,"Exp 2",15922.9166898148,TRUE,TRUE,FALSE,3,3
"198","1221","Aug 05 2013","22:00:02",18,5,"New Label",1,"Novel66",0,"Novel92",2,1348,"3","3",1,"Exp 2",15922.9166898148,FALSE,TRUE,FALSE,3,3
"199","1221","Aug 05 2013","22:00:02",19,6,"Same",0,"Novel39",0,"Novel112",0,1068,"3","3",1,"Exp 2",15922.9166898148,FALSE,TRUE,FALSE,3,3
"200","1221","Aug 05 2013","22:00:02",20,7,"New Label",1,"Novel137",0,"Novel17",2,775,"3","3",1,"Exp 2",15922.9166898148,FALSE,TRUE,FALSE,3,3
"201","1222","Aug 14 2013","22:32:56",6,0,"Same",0,"Novel101",2,"Novel101",0,1098,"4","0",1,"Exp 2",15931.939537037,TRUE,TRUE,TRUE,4,0
"202","1222","Aug 14 2013","22:32:56",8,1,"New Label",0,"Novel5",2,"Novel5",1,1843,"4","0",1,"Exp 2",15931.939537037,TRUE,TRUE,FALSE,4,0
"203","1222","Aug 14 2013","22:32:56",10,2,"Same",1,"Novel66",1,"Novel66",1,1187,"4","0",1,"Exp 2",15931.939537037,TRUE,TRUE,FALSE,4,0
"204","1222","Aug 14 2013","22:32:56",12,3,"New Label",0,"Novel44",0,"Novel44",2,2665,"4","0",1,"Exp 2",15931.939537037,TRUE,TRUE,FALSE,4,0
"205","1222","Aug 14 2013","22:32:56",14,4,"Same",1,"Novel122",0,"Novel122",0,1119,"4","0",1,"Exp 2",15931.939537037,TRUE,TRUE,FALSE,4,0
"206","1222","Aug 14 2013","22:32:56",16,5,"New Label",1,"Novel10",0,"Novel10",0,1316,"4","0",1,"Exp 2",15931.939537037,TRUE,TRUE,FALSE,4,0
"207","1222","Aug 14 2013","22:32:56",18,6,"Same",0,"Novel107",2,"Novel107",3,954,"4","0",1,"Exp 2",15931.939537037,TRUE,TRUE,FALSE,4,0
"208","1222","Aug 14 2013","22:32:56",20,7,"New Label",1,"Novel106",1,"Novel85",0,2281,"4","0",1,"Exp 2",15931.939537037,FALSE,TRUE,FALSE,4,0
"209","1223","Aug 05 2013","22:54:16",9,0,"Same",1,"Novel23",1,"Novel38",2,1180,"3","3",1,"Exp 2",15922.9543518519,FALSE,TRUE,TRUE,3,3
"210","1223","Aug 05 2013","22:54:16",10,1,"New Label",0,"Novel57",1,"Novel57",0,1527,"3","3",1,"Exp 2",15922.9543518519,TRUE,TRUE,FALSE,3,3
"211","1223","Aug 05 2013","22:54:16",11,2,"Same",0,"Novel70",0,"Novel73",2,1564,"3","3",1,"Exp 2",15922.9543518519,FALSE,TRUE,FALSE,3,3
"212","1223","Aug 05 2013","22:54:16",12,3,"New Label",1,"Novel85",0,"Novel76",1,1116,"3","3",1,"Exp 2",15922.9543518519,FALSE,TRUE,FALSE,3,3
"213","1223","Aug 05 2013","22:54:16",17,4,"Same",1,"Novel14",2,"Novel14",2,1029,"3","3",1,"Exp 2",15922.9543518519,TRUE,TRUE,FALSE,3,3
"214","1223","Aug 05 2013","22:54:16",18,5,"New Label",1,"Novel118",0,"Novel92",2,751,"3","3",1,"Exp 2",15922.9543518519,FALSE,TRUE,FALSE,3,3
"215","1223","Aug 05 2013","22:54:16",19,6,"Same",0,"Novel75",1,"Novel75",2,682,"3","3",1,"Exp 2",15922.9543518519,TRUE,TRUE,FALSE,3,3
"216","1223","Aug 05 2013","22:54:16",20,7,"New Label",0,"Novel124",0,"Novel124",1,683,"3","3",1,"Exp 2",15922.9543518519,TRUE,TRUE,FALSE,3,3
"217","1224","Aug 10 2013","10:14:20",9,0,"New Label",0,"Novel60",4,"Novel81",3,2100,"8","3",1,"Exp 2",15927.4266203704,FALSE,TRUE,TRUE,8,3
"218","1224","Aug 10 2013","10:14:20",10,1,"Same",1,"Novel31",3,"Novel37",6,1261,"8","3",1,"Exp 2",15927.4266203704,FALSE,TRUE,FALSE,8,3
"219","1224","Aug 10 2013","10:14:20",11,2,"New Label",1,"Novel102",5,"Novel41",1,2315,"8","3",1,"Exp 2",15927.4266203704,FALSE,TRUE,FALSE,8,3
"220","1224","Aug 10 2013","10:14:20",12,3,"Same",0,"Novel2",0,"Novel19",6,1142,"8","3",1,"Exp 2",15927.4266203704,FALSE,TRUE,FALSE,8,3
"221","1224","Aug 10 2013","10:14:20",17,4,"New Label",0,"Novel122",1,"Novel35",3,2215,"8","3",1,"Exp 2",15927.4266203704,FALSE,TRUE,FALSE,8,3
"222","1224","Aug 10 2013","10:14:20",18,5,"Same",0,"Novel94",4,"Novel63",4,1903,"8","3",1,"Exp 2",15927.4266203704,FALSE,TRUE,FALSE,8,3
"223","1224","Aug 10 2013","10:14:20",19,6,"New Label",1,"Novel88",3,"Novel84",7,2437,"8","3",1,"Exp 2",15927.4266203704,FALSE,TRUE,FALSE,8,3
"224","1224","Aug 10 2013","10:14:20",20,7,"Same",1,"Novel95",7,"Novel80",6,3752,"8","3",1,"Exp 2",15927.4266203704,FALSE,TRUE,FALSE,8,3
"225","1225","Aug 10 2013","12:03:28",7,0,"New Label",0,"Novel14",3,"Novel37",2,4697,"4","1",1,"Exp 2",15927.5024074074,FALSE,TRUE,TRUE,4,1
"226","1225","Aug 10 2013","12:03:28",8,1,"Same",0,"Novel22",3,"Novel22",2,2137,"4","1",1,"Exp 2",15927.5024074074,TRUE,TRUE,FALSE,4,1
"227","1225","Aug 10 2013","12:03:28",11,2,"New Label",1,"Novel86",2,"Novel86",2,3485,"4","1",1,"Exp 2",15927.5024074074,TRUE,TRUE,FALSE,4,1
"228","1225","Aug 10 2013","12:03:28",12,3,"Same",1,"Novel39",1,"Novel39",1,2532,"4","1",1,"Exp 2",15927.5024074074,TRUE,TRUE,FALSE,4,1
"229","1225","Aug 10 2013","12:03:28",15,4,"New Label",0,"Novel84",2,"Novel117",2,2155,"4","1",1,"Exp 2",15927.5024074074,FALSE,TRUE,FALSE,4,1
"230","1225","Aug 10 2013","12:03:28",16,5,"Same",0,"Novel69",2,"Novel69",0,2804,"4","1",1,"Exp 2",15927.5024074074,TRUE,TRUE,FALSE,4,1
"231","1225","Aug 10 2013","12:03:28",19,6,"New Label",1,"Novel44",1,"Novel32",0,5324,"4","1",1,"Exp 2",15927.5024074074,FALSE,TRUE,FALSE,4,1
"232","1225","Aug 10 2013","12:03:28",20,7,"Same",1,"Novel54",0,"Novel54",0,2303,"4","1",1,"Exp 2",15927.5024074074,TRUE,TRUE,FALSE,4,1
"233","1226","Aug 06 2013","01:51:12",13,0,"New Label",1,"Novel55",0,"Novel77",3,3210,"4","7",1,"Exp 2",15923.0772222222,FALSE,TRUE,TRUE,4,7
"234","1226","Aug 06 2013","01:51:12",14,1,"Same",0,"Novel136",1,"Novel136",0,4591,"4","7",1,"Exp 2",15923.0772222222,TRUE,TRUE,FALSE,4,7
"235","1226","Aug 06 2013","01:51:12",15,2,"New Label",1,"Novel123",2,"Novel100",3,4305,"4","7",1,"Exp 2",15923.0772222222,FALSE,TRUE,FALSE,4,7
"236","1226","Aug 06 2013","01:51:12",16,3,"Same",1,"Novel116",1,"Novel68",3,2874,"4","7",1,"Exp 2",15923.0772222222,FALSE,TRUE,FALSE,4,7
"237","1226","Aug 06 2013","01:51:12",17,4,"New Label",0,"Novel85",3,"Novel85",1,2876,"4","7",1,"Exp 2",15923.0772222222,TRUE,TRUE,FALSE,4,7
"238","1226","Aug 06 2013","01:51:12",18,5,"Same",0,"Novel119",0,"Novel119",1,1789,"4","7",1,"Exp 2",15923.0772222222,TRUE,TRUE,FALSE,4,7
"239","1226","Aug 06 2013","01:51:12",19,6,"New Label",0,"Novel66",2,"Novel29",1,2985,"4","7",1,"Exp 2",15923.0772222222,FALSE,TRUE,FALSE,4,7
"240","1226","Aug 06 2013","01:51:12",20,7,"Same",1,"Novel99",1,"Novel99",1,1745,"4","7",1,"Exp 2",15923.0772222222,TRUE,TRUE,FALSE,4,7
"241","1227","Aug 06 2013","04:23:37",9,0,"Same",0,"Novel48",0,"Novel48",1,2673,"8","3",1,"Exp 2",15923.1830671296,TRUE,TRUE,TRUE,8,3
"242","1227","Aug 06 2013","04:23:37",10,1,"New Label",1,"Novel2",3,"Novel50",0,2452,"8","3",1,"Exp 2",15923.1830671296,FALSE,TRUE,FALSE,8,3
"243","1227","Aug 06 2013","04:23:37",11,2,"Same",1,"Novel60",7,"Novel60",7,1315,"8","3",1,"Exp 2",15923.1830671296,TRUE,TRUE,FALSE,8,3
"244","1227","Aug 06 2013","04:23:37",12,3,"New Label",1,"Novel9",2,"Novel102",6,2073,"8","3",1,"Exp 2",15923.1830671296,FALSE,TRUE,FALSE,8,3
"245","1227","Aug 06 2013","04:23:37",17,4,"Same",1,"Novel100",4,"Novel100",4,2336,"8","3",1,"Exp 2",15923.1830671296,TRUE,TRUE,FALSE,8,3
"246","1227","Aug 06 2013","04:23:37",18,5,"New Label",0,"Novel87",0,"Novel62",6,3224,"8","3",1,"Exp 2",15923.1830671296,FALSE,TRUE,FALSE,8,3
"247","1227","Aug 06 2013","04:23:37",19,6,"Same",0,"Novel133",6,"Novel133",1,3617,"8","3",1,"Exp 2",15923.1830671296,TRUE,TRUE,FALSE,8,3
"248","1227","Aug 06 2013","04:23:37",20,7,"New Label",0,"Novel99",3,"Novel51",1,3888,"8","3",1,"Exp 2",15923.1830671296,FALSE,TRUE,FALSE,8,3
"249","1228","Aug 15 2013","05:00:23",6,0,"New Label",1,"Novel50",4,"Novel57",3,1373,"8","0",1,"Exp 2",15932.208599537,FALSE,TRUE,TRUE,8,0
"250","1228","Aug 15 2013","05:00:23",8,1,"Same",0,"Novel13",4,"Novel13",5,1400,"8","0",1,"Exp 2",15932.208599537,TRUE,TRUE,FALSE,8,0
"251","1228","Aug 15 2013","05:00:23",10,2,"New Label",0,"Novel35",7,"Novel35",0,1491,"8","0",1,"Exp 2",15932.208599537,TRUE,TRUE,FALSE,8,0
"252","1228","Aug 15 2013","05:00:23",12,3,"Same",1,"Novel44",7,"Novel44",7,578,"8","0",1,"Exp 2",15932.208599537,TRUE,TRUE,FALSE,8,0
"253","1228","Aug 15 2013","05:00:23",14,4,"New Label",1,"Novel99",3,"Novel111",4,937,"8","0",1,"Exp 2",15932.208599537,FALSE,TRUE,FALSE,8,0
"254","1228","Aug 15 2013","05:00:23",16,5,"Same",0,"Novel36",7,"Novel36",0,1180,"8","0",1,"Exp 2",15932.208599537,TRUE,TRUE,FALSE,8,0
"255","1228","Aug 15 2013","05:00:23",18,6,"New Label",0,"Novel62",5,"Novel46",7,1795,"8","0",1,"Exp 2",15932.208599537,FALSE,TRUE,FALSE,8,0
"256","1228","Aug 15 2013","05:00:23",20,7,"Same",1,"Novel122",4,"Novel122",4,513,"8","0",1,"Exp 2",15932.208599537,TRUE,TRUE,FALSE,8,0
"257","1229","Aug 06 2013","00:05:28",13,0,"New Label",0,"Novel129",3,"Novel129",7,2927,"8","7",1,"Exp 2",15923.0037962963,TRUE,TRUE,TRUE,8,7
"258","1229","Aug 06 2013","00:05:28",14,1,"Same",0,"Novel73",7,"Novel73",2,2374,"8","7",1,"Exp 2",15923.0037962963,TRUE,TRUE,FALSE,8,7
"259","1229","Aug 06 2013","00:05:28",15,2,"New Label",1,"Novel33",4,"Novel77",2,3020,"8","7",1,"Exp 2",15923.0037962963,FALSE,TRUE,FALSE,8,7
"260","1229","Aug 06 2013","00:05:28",16,3,"Same",1,"Novel140",5,"Novel83",7,2897,"8","7",1,"Exp 2",15923.0037962963,FALSE,TRUE,FALSE,8,7
"261","1229","Aug 06 2013","00:05:28",17,4,"New Label",1,"Novel39",2,"Novel30",5,2337,"8","7",1,"Exp 2",15923.0037962963,FALSE,TRUE,FALSE,8,7
"262","1229","Aug 06 2013","00:05:28",18,5,"Same",0,"Novel118",0,"Novel2",5,3877,"8","7",1,"Exp 2",15923.0037962963,FALSE,TRUE,FALSE,8,7
"263","1229","Aug 06 2013","00:05:28",19,6,"New Label",0,"Novel110",6,"Novel56",3,3226,"8","7",1,"Exp 2",15923.0037962963,FALSE,TRUE,FALSE,8,7
"264","1229","Aug 06 2013","00:05:28",20,7,"Same",1,"Novel59",1,"Novel17",6,1981,"8","7",1,"Exp 2",15923.0037962963,FALSE,TRUE,FALSE,8,7
"265","1230","Aug 05 2013","22:38:16",13,0,"Same",0,"Novel30",2,"Novel30",0,4592,"3","7",1,"Exp 2",15922.9432407407,TRUE,TRUE,TRUE,3,7
"266","1230","Aug 05 2013","22:38:16",14,1,"New Label",1,"Novel103",1,"Novel88",2,3878,"3","7",1,"Exp 2",15922.9432407407,FALSE,TRUE,FALSE,3,7
"267","1230","Aug 05 2013","22:38:16",15,2,"Same",1,"Novel101",2,"Novel101",2,2457,"3","7",1,"Exp 2",15922.9432407407,TRUE,TRUE,FALSE,3,7
"268","1230","Aug 05 2013","22:38:16",16,3,"New Label",0,"Novel9",1,"Novel9",0,2911,"3","7",1,"Exp 2",15922.9432407407,TRUE,TRUE,FALSE,3,7
"269","1230","Aug 05 2013","22:38:16",17,4,"Same",0,"Novel54",1,"Novel45",0,5243,"3","7",1,"Exp 2",15922.9432407407,FALSE,TRUE,FALSE,3,7
"270","1230","Aug 05 2013","22:38:16",18,5,"New Label",1,"Novel76",2,"Novel65",0,3582,"3","7",1,"Exp 2",15922.9432407407,FALSE,TRUE,FALSE,3,7
"271","1230","Aug 05 2013","22:38:16",19,6,"Same",1,"Novel85",1,"Novel85",1,2450,"3","7",1,"Exp 2",15922.9432407407,TRUE,TRUE,FALSE,3,7
"272","1230","Aug 05 2013","22:38:16",20,7,"New Label",0,"Novel110",0,"Novel110",1,5104,"3","7",1,"Exp 2",15922.9432407407,TRUE,TRUE,FALSE,3,7
"273","1231","Aug 06 2013","03:49:35",13,0,"Same",1,"Novel39",2,"Novel39",2,3703,"8","7",1,"Exp 2",15923.1594328704,TRUE,TRUE,TRUE,8,7
"274","1231","Aug 06 2013","03:49:35",14,1,"New Label",1,"Novel6",5,"Novel86",0,2684,"8","7",1,"Exp 2",15923.1594328704,FALSE,TRUE,FALSE,8,7
"275","1231","Aug 06 2013","03:49:35",15,2,"Same",0,"Novel79",7,"Novel79",6,2463,"8","7",1,"Exp 2",15923.1594328704,TRUE,TRUE,FALSE,8,7
"276","1231","Aug 06 2013","03:49:35",16,3,"New Label",0,"Novel82",4,"Novel131",5,3028,"8","7",1,"Exp 2",15923.1594328704,FALSE,TRUE,FALSE,8,7
"277","1231","Aug 06 2013","03:49:35",17,4,"Same",0,"Novel12",4,"Novel12",5,5551,"8","7",1,"Exp 2",15923.1594328704,TRUE,TRUE,FALSE,8,7
"278","1231","Aug 06 2013","03:49:35",18,5,"New Label",0,"Novel113",3,"Novel113",0,3559,"8","7",1,"Exp 2",15923.1594328704,TRUE,TRUE,FALSE,8,7
"279","1231","Aug 06 2013","03:49:35",19,6,"Same",1,"Novel62",0,"Novel62",0,5481,"8","7",1,"Exp 2",15923.1594328704,TRUE,TRUE,FALSE,8,7
"280","1231","Aug 06 2013","03:49:35",20,7,"New Label",1,"Novel75",7,"Novel135",2,2462,"8","7",1,"Exp 2",15923.1594328704,FALSE,TRUE,FALSE,8,7
"281","1232","Aug 05 2013","21:46:26",7,0,"New Label",1,"Novel20",0,"Novel39",2,4343,"4","1",1,"Exp 2",15922.9072453704,FALSE,TRUE,TRUE,4,1
"282","1232","Aug 05 2013","21:46:26",8,1,"Same",0,"Novel122",1,"Novel122",2,3473,"4","1",1,"Exp 2",15922.9072453704,TRUE,TRUE,FALSE,4,1
"283","1232","Aug 05 2013","21:46:26",11,2,"New Label",1,"Novel84",2,"Novel51",1,4022,"4","1",1,"Exp 2",15922.9072453704,FALSE,TRUE,FALSE,4,1
"284","1232","Aug 05 2013","21:46:26",12,3,"Same",0,"Novel94",3,"Novel94",0,2058,"4","1",1,"Exp 2",15922.9072453704,TRUE,TRUE,FALSE,4,1
"285","1232","Aug 05 2013","21:46:26",15,4,"New Label",0,"Novel114",0,"Novel10",2,3013,"4","1",1,"Exp 2",15922.9072453704,FALSE,TRUE,FALSE,4,1
"286","1232","Aug 05 2013","21:46:26",16,5,"Same",1,"Novel129",2,"Novel129",2,1987,"4","1",1,"Exp 2",15922.9072453704,TRUE,TRUE,FALSE,4,1
"287","1232","Aug 05 2013","21:46:26",19,6,"New Label",0,"Novel90",3,"Novel7",3,2334,"4","1",1,"Exp 2",15922.9072453704,FALSE,TRUE,FALSE,4,1
"288","1232","Aug 05 2013","21:46:26",20,7,"Same",1,"Novel119",0,"Novel119",0,3147,"4","1",1,"Exp 2",15922.9072453704,TRUE,TRUE,FALSE,4,1
"289","1233","Aug 09 2013","12:30:24",9,0,"Same",0,"Novel13",0,"Novel13",1,1269,"2","3",1,"Exp 2",15926.5211111111,TRUE,TRUE,TRUE,2,3
"290","1233","Aug 09 2013","12:30:24",10,1,"New Label",0,"Novel108",0,"Novel100",0,2821,"2","3",1,"Exp 2",15926.5211111111,FALSE,TRUE,FALSE,2,3
"291","1233","Aug 09 2013","12:30:24",11,2,"Same",0,"Novel9",1,"Novel9",0,1131,"2","3",1,"Exp 2",15926.5211111111,TRUE,TRUE,FALSE,2,3
"292","1233","Aug 09 2013","12:30:24",12,3,"New Label",0,"Novel105",1,"Novel123",1,1444,"2","3",1,"Exp 2",15926.5211111111,FALSE,TRUE,FALSE,2,3
"293","1233","Aug 09 2013","12:30:24",17,4,"Same",1,"Novel82",0,"Novel82",0,1213,"2","3",1,"Exp 2",15926.5211111111,TRUE,TRUE,FALSE,2,3
"294","1233","Aug 09 2013","12:30:24",18,5,"New Label",1,"Novel16",0,"Novel94",1,1723,"2","3",1,"Exp 2",15926.5211111111,FALSE,TRUE,FALSE,2,3
"295","1233","Aug 09 2013","12:30:24",19,6,"Same",1,"Novel42",0,"Novel42",0,1373,"2","3",1,"Exp 2",15926.5211111111,TRUE,TRUE,FALSE,2,3
"296","1233","Aug 09 2013","12:30:24",20,7,"New Label",1,"Novel65",1,"Novel62",0,2222,"2","3",1,"Exp 2",15926.5211111111,FALSE,TRUE,FALSE,2,3
"297","1234","Aug 05 2013","21:44:24",9,0,"Same",0,"Novel140",1,"Novel91",1,1334,"2","3",1,"Exp 2",15922.9058333333,FALSE,TRUE,TRUE,2,3
"298","1234","Aug 05 2013","21:44:24",10,1,"New Label",1,"Novel5",1,"Novel26",0,1311,"2","3",1,"Exp 2",15922.9058333333,FALSE,TRUE,FALSE,2,3
"299","1234","Aug 05 2013","21:44:24",11,2,"Same",1,"Novel7",0,"Novel7",0,1022,"2","3",1,"Exp 2",15922.9058333333,TRUE,TRUE,FALSE,2,3
"300","1234","Aug 05 2013","21:44:24",12,3,"New Label",0,"Novel135",1,"Novel104",1,1244,"2","3",1,"Exp 2",15922.9058333333,FALSE,TRUE,FALSE,2,3
"301","1234","Aug 05 2013","21:44:24",17,4,"Same",1,"Novel88",0,"Novel88",0,2791,"2","3",1,"Exp 2",15922.9058333333,TRUE,TRUE,FALSE,2,3
"302","1234","Aug 05 2013","21:44:24",18,5,"New Label",1,"Novel109",0,"Novel118",1,1720,"2","3",1,"Exp 2",15922.9058333333,FALSE,TRUE,FALSE,2,3
"303","1234","Aug 05 2013","21:44:24",19,6,"Same",0,"Novel124",1,"Novel124",0,2067,"2","3",1,"Exp 2",15922.9058333333,TRUE,TRUE,FALSE,2,3
"304","1234","Aug 05 2013","21:44:24",20,7,"New Label",0,"Novel57",0,"Novel57",1,914,"2","3",1,"Exp 2",15922.9058333333,TRUE,TRUE,FALSE,2,3
"305","1235","Aug 14 2013","22:08:35",6,0,"New Label",0,"Novel38",7,"Novel116",5,4269,"8","0",1,"Exp 2",15931.9226273148,FALSE,TRUE,TRUE,8,0
"306","1235","Aug 14 2013","22:08:35",8,1,"Same",0,"Novel11",1,"Novel11",2,2097,"8","0",1,"Exp 2",15931.9226273148,TRUE,TRUE,FALSE,8,0
"307","1235","Aug 14 2013","22:08:35",10,2,"New Label",0,"Novel15",5,"Novel13",6,2211,"8","0",1,"Exp 2",15931.9226273148,FALSE,TRUE,FALSE,8,0
"308","1235","Aug 14 2013","22:08:35",12,3,"Same",1,"Novel99",3,"Novel99",3,4122,"8","0",1,"Exp 2",15931.9226273148,TRUE,TRUE,FALSE,8,0
"309","1235","Aug 14 2013","22:08:35",14,4,"New Label",1,"Novel61",5,"Novel126",0,4081,"8","0",1,"Exp 2",15931.9226273148,FALSE,TRUE,FALSE,8,0
"310","1235","Aug 14 2013","22:08:35",16,5,"Same",0,"Novel115",3,"Novel94",4,6124,"8","0",1,"Exp 2",15931.9226273148,FALSE,TRUE,FALSE,8,0
"311","1235","Aug 14 2013","22:08:35",18,6,"New Label",1,"Novel40",2,"Novel93",7,3387,"8","0",1,"Exp 2",15931.9226273148,FALSE,TRUE,FALSE,8,0
"312","1235","Aug 14 2013","22:08:35",20,7,"Same",1,"Novel65",4,"Novel65",4,1326,"8","0",1,"Exp 2",15931.9226273148,TRUE,TRUE,FALSE,8,0
"313","1236","Aug 05 2013","22:19:36",9,0,"New Label",1,"Novel14",1,"Novel76",2,3222,"3","3",1,"Exp 2",15922.9302777778,FALSE,TRUE,TRUE,3,3
"314","1236","Aug 05 2013","22:19:36",10,1,"Same",0,"Novel104",2,"Novel104",1,2000,"3","3",1,"Exp 2",15922.9302777778,TRUE,TRUE,FALSE,3,3
"315","1236","Aug 05 2013","22:19:36",11,2,"New Label",1,"Novel32",0,"Novel118",1,2124,"3","3",1,"Exp 2",15922.9302777778,FALSE,TRUE,FALSE,3,3
"316","1236","Aug 05 2013","22:19:36",12,3,"Same",1,"Novel26",1,"Novel26",1,2441,"3","3",1,"Exp 2",15922.9302777778,TRUE,TRUE,FALSE,3,3
"317","1236","Aug 05 2013","22:19:36",17,4,"New Label",0,"Novel63",1,"Novel117",2,1940,"3","3",1,"Exp 2",15922.9302777778,FALSE,TRUE,FALSE,3,3
"318","1236","Aug 05 2013","22:19:36",18,5,"Same",0,"Novel79",2,"Novel79",0,2018,"3","3",1,"Exp 2",15922.9302777778,TRUE,TRUE,FALSE,3,3
"319","1236","Aug 05 2013","22:19:36",19,6,"New Label",0,"Novel140",1,"Novel94",2,2266,"3","3",1,"Exp 2",15922.9302777778,FALSE,TRUE,FALSE,3,3
"320","1236","Aug 05 2013","22:19:36",20,7,"Same",1,"Novel74",1,"Novel74",1,1584,"3","3",1,"Exp 2",15922.9302777778,TRUE,TRUE,FALSE,3,3
"321","1237","Aug 05 2013","23:18:40",13,0,"New Label",1,"Novel84",5,"Novel140",7,3010,"8","7",1,"Exp 2",15922.9712962963,FALSE,TRUE,TRUE,8,7
"322","1237","Aug 05 2013","23:18:40",14,1,"Same",1,"Novel49",2,"Novel58",5,2465,"8","7",1,"Exp 2",15922.9712962963,FALSE,TRUE,FALSE,8,7
"323","1237","Aug 05 2013","23:18:40",15,2,"New Label",1,"Novel35",5,"Novel3",7,1548,"8","7",1,"Exp 2",15922.9712962963,FALSE,TRUE,FALSE,8,7
"324","1237","Aug 05 2013","23:18:40",16,3,"Same",0,"Novel117",2,"Novel136",6,143,"8","7",1,"Exp 2",15922.9712962963,FALSE,TRUE,FALSE,8,7
"325","1237","Aug 05 2013","23:18:40",17,4,"New Label",0,"Novel68",4,"Novel111",7,967,"8","7",1,"Exp 2",15922.9712962963,FALSE,TRUE,FALSE,8,7
"326","1237","Aug 05 2013","23:18:40",18,5,"Same",1,"Novel126",1,"Novel34",2,966,"8","7",1,"Exp 2",15922.9712962963,FALSE,TRUE,FALSE,8,7
"327","1237","Aug 05 2013","23:18:40",19,6,"New Label",0,"Novel70",6,"Novel70",3,780,"8","7",1,"Exp 2",15922.9712962963,TRUE,TRUE,FALSE,8,7
"328","1237","Aug 05 2013","23:18:40",20,7,"Same",0,"Novel106",2,"Novel21",0,534,"8","7",1,"Exp 2",15922.9712962963,FALSE,TRUE,FALSE,8,7
"329","1238","Aug 10 2013","13:08:16",7,0,"New Label",1,"Novel41",0,"Novel57",1,3226,"3","1",1,"Exp 2",15927.5474074074,FALSE,TRUE,TRUE,3,1
"330","1238","Aug 10 2013","13:08:16",8,1,"Same",1,"Novel98",0,"Novel98",0,3620,"3","1",1,"Exp 2",15927.5474074074,TRUE,TRUE,FALSE,3,1
"331","1238","Aug 10 2013","13:08:16",11,2,"New Label",0,"Novel90",2,"Novel121",2,2226,"3","1",1,"Exp 2",15927.5474074074,FALSE,TRUE,FALSE,3,1
"332","1238","Aug 10 2013","13:08:16",12,3,"Same",1,"Novel33",2,"Novel33",2,3675,"3","1",1,"Exp 2",15927.5474074074,TRUE,TRUE,FALSE,3,1
"333","1238","Aug 10 2013","13:08:16",15,4,"New Label",0,"Novel134",0,"Novel134",1,1980,"3","1",1,"Exp 2",15927.5474074074,TRUE,TRUE,FALSE,3,1
"334","1238","Aug 10 2013","13:08:16",16,5,"Same",0,"Novel67",1,"Novel67",0,2119,"3","1",1,"Exp 2",15927.5474074074,TRUE,TRUE,FALSE,3,1
"335","1238","Aug 10 2013","13:08:16",19,6,"New Label",1,"Novel42",1,"Novel45",2,3200,"3","1",1,"Exp 2",15927.5474074074,FALSE,TRUE,FALSE,3,1
"336","1238","Aug 10 2013","13:08:16",20,7,"Same",0,"Novel124",2,"Novel124",1,3224,"3","1",1,"Exp 2",15927.5474074074,TRUE,TRUE,FALSE,3,1
"337","1239","Aug 14 2013","22:09:14",6,0,"New Label",1,"Novel3",1,"Novel32",0,5267,"4","0",1,"Exp 2",15931.9230787037,FALSE,TRUE,TRUE,4,0
"338","1239","Aug 14 2013","22:09:14",8,1,"Same",1,"Novel65",2,"Novel65",2,3319,"4","0",1,"Exp 2",15931.9230787037,TRUE,TRUE,FALSE,4,0
"339","1239","Aug 14 2013","22:09:14",10,2,"New Label",0,"Novel51",0,"Novel10",3,3258,"4","0",1,"Exp 2",15931.9230787037,FALSE,TRUE,FALSE,4,0
"340","1239","Aug 14 2013","22:09:14",12,3,"Same",1,"Novel94",0,"Novel94",0,1445,"4","0",1,"Exp 2",15931.9230787037,TRUE,TRUE,FALSE,4,0
"341","1239","Aug 14 2013","22:09:14",14,4,"New Label",0,"Novel6",1,"Novel118",3,2959,"4","0",1,"Exp 2",15931.9230787037,FALSE,TRUE,FALSE,4,0
"342","1239","Aug 14 2013","22:09:14",16,5,"Same",0,"Novel111",0,"Novel111",3,1356,"4","0",1,"Exp 2",15931.9230787037,TRUE,TRUE,FALSE,4,0
"343","1239","Aug 14 2013","22:09:14",18,6,"New Label",1,"Novel133",3,"Novel133",3,4345,"4","0",1,"Exp 2",15931.9230787037,TRUE,TRUE,FALSE,4,0
"344","1239","Aug 14 2013","22:09:14",20,7,"Same",0,"Novel8",2,"Novel8",1,1164,"4","0",1,"Exp 2",15931.9230787037,TRUE,TRUE,FALSE,4,0
"345","1240","Aug 10 2013","13:23:31",7,0,"Same",1,"Novel93",2,"Novel93",2,4089,"8","1",1,"Exp 2",15927.5579976852,TRUE,TRUE,TRUE,8,1
"346","1240","Aug 10 2013","13:23:31",8,1,"New Label",1,"Novel130",4,"Novel130",4,3298,"8","1",1,"Exp 2",15927.5579976852,TRUE,TRUE,FALSE,8,1
"347","1240","Aug 10 2013","13:23:31",11,2,"Same",0,"Novel68",7,"Novel68",3,4657,"8","1",1,"Exp 2",15927.5579976852,TRUE,TRUE,FALSE,8,1
"348","1240","Aug 10 2013","13:23:31",12,3,"New Label",0,"Novel4",6,"Novel33",2,5669,"8","1",1,"Exp 2",15927.5579976852,FALSE,TRUE,FALSE,8,1
"349","1240","Aug 10 2013","13:23:31",15,4,"Same",0,"Novel17",7,"Novel17",4,2518,"8","1",1,"Exp 2",15927.5579976852,TRUE,TRUE,FALSE,8,1
"350","1240","Aug 10 2013","13:23:31",16,5,"New Label",0,"Novel78",2,"Novel15",6,5606,"8","1",1,"Exp 2",15927.5579976852,FALSE,TRUE,FALSE,8,1
"351","1240","Aug 10 2013","13:23:31",19,6,"Same",1,"Novel48",2,"Novel48",2,2814,"8","1",1,"Exp 2",15927.5579976852,TRUE,TRUE,FALSE,8,1
"352","1240","Aug 10 2013","13:23:31",20,7,"New Label",1,"Novel88",1,"Novel108",6,8631,"8","1",1,"Exp 2",15927.5579976852,FALSE,TRUE,FALSE,8,1
"353","1241","Aug 15 2013","05:26:23",6,0,"New Label",1,"Novel119",1,"Novel95",0,1440,"2","0",1,"Exp 2",15932.2266550926,FALSE,TRUE,TRUE,2,0
"354","1241","Aug 15 2013","05:26:23",8,1,"Same",1,"Novel91",1,"Novel91",1,1266,"2","0",1,"Exp 2",15932.2266550926,TRUE,TRUE,FALSE,2,0
"355","1241","Aug 15 2013","05:26:23",10,2,"New Label",1,"Novel55",1,"Novel55",1,2322,"2","0",1,"Exp 2",15932.2266550926,TRUE,TRUE,FALSE,2,0
"356","1241","Aug 15 2013","05:26:23",12,3,"Same",0,"Novel96",1,"Novel96",0,1243,"2","0",1,"Exp 2",15932.2266550926,TRUE,TRUE,FALSE,2,0
"357","1241","Aug 15 2013","05:26:23",14,4,"New Label",0,"Novel25",1,"Novel4",1,3656,"2","0",1,"Exp 2",15932.2266550926,FALSE,TRUE,FALSE,2,0
"358","1241","Aug 15 2013","05:26:23",16,5,"Same",1,"Novel115",0,"Novel115",0,995,"2","0",1,"Exp 2",15932.2266550926,TRUE,TRUE,FALSE,2,0
"359","1241","Aug 15 2013","05:26:23",18,6,"New Label",0,"Novel26",1,"Novel24",1,1348,"2","0",1,"Exp 2",15932.2266550926,FALSE,TRUE,FALSE,2,0
"360","1241","Aug 15 2013","05:26:23",20,7,"Same",0,"Novel87",1,"Novel87",0,1450,"2","0",1,"Exp 2",15932.2266550926,TRUE,TRUE,FALSE,2,0
"361","1242","Aug 10 2013","10:35:57",13,0,"New Label",1,"Novel91",0,"Novel130",2,1918,"4","7",1,"Exp 2",15927.4416319444,FALSE,TRUE,TRUE,4,7
"362","1242","Aug 10 2013","10:35:57",14,1,"Same",1,"Novel93",2,"Novel36",0,2080,"4","7",1,"Exp 2",15927.4416319444,FALSE,TRUE,FALSE,4,7
"363","1242","Aug 10 2013","10:35:57",15,2,"New Label",0,"Novel1",0,"Novel86",3,1623,"4","7",1,"Exp 2",15927.4416319444,FALSE,TRUE,FALSE,4,7
"364","1242","Aug 10 2013","10:35:57",16,3,"Same",0,"Novel26",1,"Novel26",3,1843,"4","7",1,"Exp 2",15927.4416319444,TRUE,TRUE,FALSE,4,7
"365","1242","Aug 10 2013","10:35:57",17,4,"New Label",1,"Novel38",0,"Novel74",3,1705,"4","7",1,"Exp 2",15927.4416319444,FALSE,TRUE,FALSE,4,7
"366","1242","Aug 10 2013","10:35:57",18,5,"Same",0,"Novel94",3,"Novel81",1,1055,"4","7",1,"Exp 2",15927.4416319444,FALSE,TRUE,FALSE,4,7
"367","1242","Aug 10 2013","10:35:57",19,6,"New Label",0,"Novel15",1,"Novel129",0,2387,"4","7",1,"Exp 2",15927.4416319444,FALSE,TRUE,FALSE,4,7
"368","1242","Aug 10 2013","10:35:57",20,7,"Same",1,"Novel98",2,"Novel13",3,1773,"4","7",1,"Exp 2",15927.4416319444,FALSE,TRUE,FALSE,4,7
"369","1243","Aug 05 2013","21:48:01",7,0,"New Label",0,"Novel133",1,"Novel19",2,1865,"4","1",1,"Exp 2",15922.9083449074,FALSE,TRUE,TRUE,4,1
"370","1243","Aug 05 2013","21:48:01",8,1,"Same",0,"Novel60",1,"Novel60",0,1117,"4","1",1,"Exp 2",15922.9083449074,TRUE,TRUE,FALSE,4,1
"371","1243","Aug 05 2013","21:48:01",11,2,"New Label",1,"Novel105",2,"Novel105",2,1345,"4","1",1,"Exp 2",15922.9083449074,TRUE,TRUE,FALSE,4,1
"372","1243","Aug 05 2013","21:48:01",12,3,"Same",1,"Novel62",0,"Novel62",0,1273,"4","1",1,"Exp 2",15922.9083449074,TRUE,TRUE,FALSE,4,1
"373","1243","Aug 05 2013","21:48:01",15,4,"New Label",1,"Novel80",2,"Novel32",1,992,"4","1",1,"Exp 2",15922.9083449074,FALSE,TRUE,FALSE,4,1
"374","1243","Aug 05 2013","21:48:01",16,5,"Same",1,"Novel64",0,"Novel64",0,1401,"4","1",1,"Exp 2",15922.9083449074,TRUE,TRUE,FALSE,4,1
"375","1243","Aug 05 2013","21:48:01",19,6,"New Label",0,"Novel101",0,"Novel101",2,1052,"4","1",1,"Exp 2",15922.9083449074,TRUE,TRUE,FALSE,4,1
"376","1243","Aug 05 2013","21:48:01",20,7,"Same",0,"Novel14",3,"Novel14",1,997,"4","1",1,"Exp 2",15922.9083449074,TRUE,TRUE,FALSE,4,1
"377","1244","Aug 10 2013","09:58:48",13,0,"Same",1,"Novel96",2,"Novel91",0,2088,"3","7",1,"Exp 2",15927.4158333333,FALSE,TRUE,TRUE,3,7
"378","1244","Aug 10 2013","09:58:48",14,1,"New Label",0,"Novel32",0,"Novel54",2,4341,"3","7",1,"Exp 2",15927.4158333333,FALSE,TRUE,FALSE,3,7
"379","1244","Aug 10 2013","09:58:48",15,2,"Same",1,"Novel121",1,"Novel66",0,2876,"3","7",1,"Exp 2",15927.4158333333,FALSE,TRUE,FALSE,3,7
"380","1244","Aug 10 2013","09:58:48",16,3,"New Label",0,"Novel27",1,"Novel21",2,3552,"3","7",1,"Exp 2",15927.4158333333,FALSE,TRUE,FALSE,3,7
"381","1244","Aug 10 2013","09:58:48",17,4,"Same",0,"Novel86",0,"Novel86",2,13789,"3","7",1,"Exp 2",15927.4158333333,TRUE,TRUE,FALSE,3,7
"382","1244","Aug 10 2013","09:58:48",18,5,"New Label",1,"Novel51",2,"Novel11",0,1727,"3","7",1,"Exp 2",15927.4158333333,FALSE,TRUE,FALSE,3,7
"383","1244","Aug 10 2013","09:58:48",19,6,"Same",0,"Novel38",2,"Novel38",1,1711,"3","7",1,"Exp 2",15927.4158333333,TRUE,TRUE,FALSE,3,7
"384","1244","Aug 10 2013","09:58:48",20,7,"New Label",1,"Novel72",0,"Novel34",1,1421,"3","7",1,"Exp 2",15927.4158333333,FALSE,TRUE,FALSE,3,7
"385","1245","Aug 05 2013","18:30:03",7,0,"Same",1,"Novel86",1,"Novel86",1,946,"3","1",1,"Exp 2",15922.7708680556,TRUE,TRUE,TRUE,3,1
"386","1245","Aug 05 2013","18:30:03",8,1,"New Label",1,"Novel105",2,"Novel131",1,2808,"3","1",1,"Exp 2",15922.7708680556,FALSE,TRUE,FALSE,3,1
"387","1245","Aug 05 2013","18:30:03",11,2,"Same",0,"Novel8",2,"Novel8",1,2514,"3","1",1,"Exp 2",15922.7708680556,TRUE,TRUE,FALSE,3,1
"388","1245","Aug 05 2013","18:30:03",12,3,"New Label",0,"Novel111",2,"Novel19",0,2973,"3","1",1,"Exp 2",15922.7708680556,FALSE,TRUE,FALSE,3,1
"389","1245","Aug 05 2013","18:30:03",15,4,"Same",1,"Novel99",0,"Novel99",0,1442,"3","1",1,"Exp 2",15922.7708680556,TRUE,TRUE,FALSE,3,1
"390","1245","Aug 05 2013","18:30:03",16,5,"New Label",0,"Novel77",0,"Novel15",2,1985,"3","1",1,"Exp 2",15922.7708680556,FALSE,TRUE,FALSE,3,1
"391","1245","Aug 05 2013","18:30:03",19,6,"Same",0,"Novel101",0,"Novel101",1,1415,"3","1",1,"Exp 2",15922.7708680556,TRUE,TRUE,FALSE,3,1
"392","1245","Aug 05 2013","18:30:03",20,7,"New Label",1,"Novel41",2,"Novel36",1,2919,"3","1",1,"Exp 2",15922.7708680556,FALSE,TRUE,FALSE,3,1
"393","1246","Aug 14 2013","19:42:01",6,0,"Same",0,"Novel8",6,"Novel8",1,900,"8","0",1,"Exp 2",15931.8208449074,TRUE,TRUE,TRUE,8,0
"394","1246","Aug 14 2013","19:42:01",8,1,"New Label",0,"Novel90",3,"Novel109",6,1136,"8","0",1,"Exp 2",15931.8208449074,FALSE,TRUE,FALSE,8,0
"395","1246","Aug 14 2013","19:42:01",10,2,"Same",1,"Novel27",4,"Novel27",4,962,"8","0",1,"Exp 2",15931.8208449074,TRUE,TRUE,FALSE,8,0
"396","1246","Aug 14 2013","19:42:01",12,3,"New Label",1,"Novel129",4,"Novel77",3,1048,"8","0",1,"Exp 2",15931.8208449074,FALSE,TRUE,FALSE,8,0
"397","1246","Aug 14 2013","19:42:01",14,4,"Same",1,"Novel7",1,"Novel7",1,710,"8","0",1,"Exp 2",15931.8208449074,TRUE,TRUE,FALSE,8,0
"398","1246","Aug 14 2013","19:42:01",16,5,"New Label",1,"Novel13",5,"Novel82",2,1282,"8","0",1,"Exp 2",15931.8208449074,FALSE,TRUE,FALSE,8,0
"399","1246","Aug 14 2013","19:42:01",18,6,"Same",0,"Novel37",0,"Novel37",3,1066,"8","0",1,"Exp 2",15931.8208449074,TRUE,TRUE,FALSE,8,0
"400","1246","Aug 14 2013","19:42:01",20,7,"New Label",0,"Novel26",3,"Novel113",5,1205,"8","0",1,"Exp 2",15931.8208449074,FALSE,TRUE,FALSE,8,0
"401","1247","Aug 10 2013","10:25:25",7,0,"Same",1,"Novel130",3,"Novel130",3,1322,"4","1",1,"Exp 2",15927.4343171296,TRUE,TRUE,TRUE,4,1
"402","1247","Aug 10 2013","10:25:25",8,1,"New Label",1,"Novel75",1,"Novel2",2,1525,"4","1",1,"Exp 2",15927.4343171296,FALSE,TRUE,FALSE,4,1
"403","1247","Aug 10 2013","10:25:25",11,2,"Same",1,"Novel134",1,"Novel134",1,1135,"4","1",1,"Exp 2",15927.4343171296,TRUE,TRUE,FALSE,4,1
"404","1247","Aug 10 2013","10:25:25",12,3,"New Label",0,"Novel23",2,"Novel85",0,1311,"4","1",1,"Exp 2",15927.4343171296,FALSE,TRUE,FALSE,4,1
"405","1247","Aug 10 2013","10:25:25",15,4,"Same",0,"Novel71",0,"Novel71",1,1592,"4","1",1,"Exp 2",15927.4343171296,TRUE,TRUE,FALSE,4,1
"406","1247","Aug 10 2013","10:25:25",16,5,"New Label",0,"Novel98",2,"Novel138",1,1988,"4","1",1,"Exp 2",15927.4343171296,FALSE,TRUE,FALSE,4,1
"407","1247","Aug 10 2013","10:25:25",19,6,"Same",0,"Novel24",2,"Novel24",1,1884,"4","1",1,"Exp 2",15927.4343171296,TRUE,TRUE,FALSE,4,1
"408","1247","Aug 10 2013","10:25:25",20,7,"New Label",1,"Novel91",3,"Novel109",2,1024,"4","1",1,"Exp 2",15927.4343171296,FALSE,TRUE,FALSE,4,1
"409","1248","Aug 05 2013","22:09:38",9,0,"New Label",0,"Novel63",0,"Novel79",0,1381,"2","3",1,"Exp 2",15922.9233564815,FALSE,TRUE,TRUE,2,3
"410","1248","Aug 05 2013","22:09:38",10,1,"Same",1,"Novel116",1,"Novel20",0,1494,"2","3",1,"Exp 2",15922.9233564815,FALSE,TRUE,FALSE,2,3
"411","1248","Aug 05 2013","22:09:38",11,2,"New Label",1,"Novel59",1,"Novel22",0,2021,"2","3",1,"Exp 2",15922.9233564815,FALSE,TRUE,FALSE,2,3
"412","1248","Aug 05 2013","22:09:38",12,3,"Same",0,"Novel30",0,"Novel30",1,1471,"2","3",1,"Exp 2",15922.9233564815,TRUE,TRUE,FALSE,2,3
"413","1248","Aug 05 2013","22:09:38",17,4,"New Label",0,"Novel125",1,"Novel51",1,2014,"2","3",1,"Exp 2",15922.9233564815,FALSE,TRUE,FALSE,2,3
"414","1248","Aug 05 2013","22:09:38",18,5,"Same",0,"Novel47",0,"Novel8",0,1393,"2","3",1,"Exp 2",15922.9233564815,FALSE,TRUE,FALSE,2,3
"415","1248","Aug 05 2013","22:09:38",19,6,"New Label",1,"Novel50",1,"Novel66",0,1402,"2","3",1,"Exp 2",15922.9233564815,FALSE,TRUE,FALSE,2,3
"416","1248","Aug 05 2013","22:09:38",20,7,"Same",1,"Novel76",0,"Novel76",0,1488,"2","3",1,"Exp 2",15922.9233564815,TRUE,TRUE,FALSE,2,3
"417","1249","Aug 05 2013","22:54:43",13,0,"Same",1,"Novel19",1,"Novel19",1,1568,"2","7",1,"Exp 2",15922.9546643519,TRUE,TRUE,TRUE,2,7
"418","1249","Aug 05 2013","22:54:43",14,1,"New Label",1,"Novel7",0,"Novel98",1,1211,"2","7",1,"Exp 2",15922.9546643519,FALSE,TRUE,FALSE,2,7
"419","1249","Aug 05 2013","22:54:43",15,2,"Same",1,"Novel55",1,"Novel55",1,2006,"2","7",1,"Exp 2",15922.9546643519,TRUE,TRUE,FALSE,2,7
"420","1249","Aug 05 2013","22:54:43",16,3,"New Label",0,"Novel51",0,"Novel33",0,1608,"2","7",1,"Exp 2",15922.9546643519,FALSE,TRUE,FALSE,2,7
"421","1249","Aug 05 2013","22:54:43",17,4,"Same",0,"Novel60",1,"Novel60",0,1341,"2","7",1,"Exp 2",15922.9546643519,TRUE,TRUE,FALSE,2,7
"422","1249","Aug 05 2013","22:54:43",18,5,"New Label",1,"Novel134",1,"Novel90",0,2321,"2","7",1,"Exp 2",15922.9546643519,FALSE,TRUE,FALSE,2,7
"423","1249","Aug 05 2013","22:54:43",19,6,"Same",0,"Novel115",1,"Novel115",0,1592,"2","7",1,"Exp 2",15922.9546643519,TRUE,TRUE,FALSE,2,7
"424","1249","Aug 05 2013","22:54:43",20,7,"New Label",0,"Novel32",1,"Novel82",1,1682,"2","7",1,"Exp 2",15922.9546643519,FALSE,TRUE,FALSE,2,7
"425","1250","Aug 05 2013","21:57:53",7,0,"New Label",1,"Novel80",3,"Novel80",3,4186,"4","1",1,"Exp 2",15922.9151967593,TRUE,TRUE,TRUE,4,1
"426","1250","Aug 05 2013","21:57:53",8,1,"Same",1,"Novel101",1,"Novel101",1,2208,"4","1",1,"Exp 2",15922.9151967593,TRUE,TRUE,FALSE,4,1
"427","1250","Aug 05 2013","21:57:53",11,2,"New Label",0,"Novel87",0,"Novel55",3,3064,"4","1",1,"Exp 2",15922.9151967593,FALSE,TRUE,FALSE,4,1
"428","1250","Aug 05 2013","21:57:53",12,3,"Same",1,"Novel5",3,"Novel5",3,3490,"4","1",1,"Exp 2",15922.9151967593,TRUE,TRUE,FALSE,4,1
"429","1250","Aug 05 2013","21:57:53",15,4,"New Label",1,"Novel36",1,"Novel4",0,4565,"4","1",1,"Exp 2",15922.9151967593,FALSE,TRUE,FALSE,4,1
"430","1250","Aug 05 2013","21:57:53",16,5,"Same",0,"Novel95",2,"Novel95",0,2162,"4","1",1,"Exp 2",15922.9151967593,TRUE,TRUE,FALSE,4,1
"431","1250","Aug 05 2013","21:57:53",19,6,"New Label",0,"Novel105",0,"Novel31",2,3068,"4","1",1,"Exp 2",15922.9151967593,FALSE,TRUE,FALSE,4,1
"432","1250","Aug 05 2013","21:57:53",20,7,"Same",0,"Novel137",1,"Novel137",3,3617,"4","1",1,"Exp 2",15922.9151967593,TRUE,TRUE,FALSE,4,1
"433","1251","Aug 05 2013","18:14:44",7,0,"Same",0,"Novel67",1,"Novel67",0,1745,"2","1",1,"Exp 2",15922.7602314815,TRUE,TRUE,TRUE,2,1
"434","1251","Aug 05 2013","18:14:44",8,1,"New Label",0,"Novel45",1,"Novel87",1,2838,"2","1",1,"Exp 2",15922.7602314815,FALSE,TRUE,FALSE,2,1
"435","1251","Aug 05 2013","18:14:44",11,2,"Same",1,"Novel39",0,"Novel39",0,1444,"2","1",1,"Exp 2",15922.7602314815,TRUE,TRUE,FALSE,2,1
"436","1251","Aug 05 2013","18:14:44",12,3,"New Label",0,"Novel128",1,"Novel4",1,1766,"2","1",1,"Exp 2",15922.7602314815,FALSE,TRUE,FALSE,2,1
"437","1251","Aug 05 2013","18:14:44",15,4,"Same",0,"Novel88",0,"Novel88",1,1602,"2","1",1,"Exp 2",15922.7602314815,TRUE,TRUE,FALSE,2,1
"438","1251","Aug 05 2013","18:14:44",16,5,"New Label",1,"Novel26",1,"Novel26",1,1210,"2","1",1,"Exp 2",15922.7602314815,TRUE,TRUE,FALSE,2,1
"439","1251","Aug 05 2013","18:14:44",19,6,"Same",1,"Novel41",1,"Novel41",1,1687,"2","1",1,"Exp 2",15922.7602314815,TRUE,TRUE,FALSE,2,1
"440","1251","Aug 05 2013","18:14:44",20,7,"New Label",1,"Novel18",0,"Novel18",0,2316,"2","1",1,"Exp 2",15922.7602314815,TRUE,TRUE,FALSE,2,1
"441","1252","Aug 05 2013","18:12:43",7,0,"New Label",0,"Novel105",0,"Novel105",1,1082,"2","1",1,"Exp 2",15922.7588310185,TRUE,TRUE,TRUE,2,1
"442","1252","Aug 05 2013","18:12:43",8,1,"Same",1,"Novel20",1,"Novel20",1,1044,"2","1",1,"Exp 2",15922.7588310185,TRUE,TRUE,FALSE,2,1
"443","1252","Aug 05 2013","18:12:43",11,2,"New Label",1,"Novel49",0,"Novel49",0,799,"2","1",1,"Exp 2",15922.7588310185,TRUE,TRUE,FALSE,2,1
"444","1252","Aug 05 2013","18:12:43",12,3,"Same",1,"Novel101",1,"Novel4",0,669,"2","1",1,"Exp 2",15922.7588310185,FALSE,TRUE,FALSE,2,1
"445","1252","Aug 05 2013","18:12:43",15,4,"New Label",1,"Novel23",1,"Novel23",1,988,"2","1",1,"Exp 2",15922.7588310185,TRUE,TRUE,FALSE,2,1
"446","1252","Aug 05 2013","18:12:43",16,5,"Same",0,"Novel76",0,"Novel76",1,972,"2","1",1,"Exp 2",15922.7588310185,TRUE,TRUE,FALSE,2,1
"447","1252","Aug 05 2013","18:12:43",19,6,"New Label",0,"Novel63",1,"Novel63",0,1244,"2","1",1,"Exp 2",15922.7588310185,TRUE,TRUE,FALSE,2,1
"448","1252","Aug 05 2013","18:12:43",20,7,"Same",0,"Novel52",1,"Novel52",0,860,"2","1",1,"Exp 2",15922.7588310185,TRUE,TRUE,FALSE,2,1
"449","1253","Aug 10 2013","12:57:15",7,0,"New Label",1,"Novel40",1,"Novel67",2,2740,"3","1",1,"Exp 2",15927.5397569444,FALSE,TRUE,TRUE,3,1
"450","1253","Aug 10 2013","12:57:15",8,1,"Same",0,"Novel33",1,"Novel33",2,3419,"3","1",1,"Exp 2",15927.5397569444,TRUE,TRUE,FALSE,3,1
"451","1253","Aug 10 2013","12:57:15",11,2,"New Label",1,"Novel111",1,"Novel30",2,2174,"3","1",1,"Exp 2",15927.5397569444,FALSE,TRUE,FALSE,3,1
"452","1253","Aug 10 2013","12:57:15",12,3,"Same",1,"Novel125",1,"Novel125",1,4313,"3","1",1,"Exp 2",15927.5397569444,TRUE,TRUE,FALSE,3,1
"453","1253","Aug 10 2013","12:57:15",15,4,"New Label",0,"Novel5",0,"Novel5",1,3788,"3","1",1,"Exp 2",15927.5397569444,TRUE,TRUE,FALSE,3,1
"454","1253","Aug 10 2013","12:57:15",16,5,"Same",1,"Novel80",1,"Novel80",1,2295,"3","1",1,"Exp 2",15927.5397569444,TRUE,TRUE,FALSE,3,1
"455","1253","Aug 10 2013","12:57:15",19,6,"New Label",0,"Novel127",2,"Novel31",0,2651,"3","1",1,"Exp 2",15927.5397569444,FALSE,TRUE,FALSE,3,1
"456","1253","Aug 10 2013","12:57:15",20,7,"Same",0,"Novel4",2,"Novel4",0,2340,"3","1",1,"Exp 2",15927.5397569444,TRUE,TRUE,FALSE,3,1
"457","1254","Aug 10 2013","14:54:06",13,0,"New Label",1,"Novel92",3,"Novel3",5,1727,"8","7",1,"Exp 2",15927.6209027778,FALSE,TRUE,TRUE,8,7
"458","1254","Aug 10 2013","14:54:06",14,1,"Same",1,"Novel75",7,"Novel100",5,710,"8","7",1,"Exp 2",15927.6209027778,FALSE,TRUE,FALSE,8,7
"459","1254","Aug 10 2013","14:54:06",15,2,"New Label",1,"Novel81",6,"Novel113",5,907,"8","7",1,"Exp 2",15927.6209027778,FALSE,TRUE,FALSE,8,7
"460","1254","Aug 10 2013","14:54:06",16,3,"Same",1,"Novel12",4,"Novel29",3,593,"8","7",1,"Exp 2",15927.6209027778,FALSE,TRUE,FALSE,8,7
"461","1254","Aug 10 2013","14:54:06",17,4,"New Label",0,"Novel130",5,"Novel99",1,1092,"8","7",1,"Exp 2",15927.6209027778,FALSE,TRUE,FALSE,8,7
"462","1254","Aug 10 2013","14:54:06",18,5,"Same",0,"Novel86",0,"Novel61",6,745,"8","7",1,"Exp 2",15927.6209027778,FALSE,TRUE,FALSE,8,7
"463","1254","Aug 10 2013","14:54:06",19,6,"New Label",0,"Novel89",2,"Novel30",4,834,"8","7",1,"Exp 2",15927.6209027778,FALSE,TRUE,FALSE,8,7
"464","1254","Aug 10 2013","14:54:06",20,7,"Same",0,"Novel136",6,"Novel6",0,874,"8","7",1,"Exp 2",15927.6209027778,FALSE,TRUE,FALSE,8,7
"465","1255","Aug 14 2013","19:54:45",6,0,"New Label",1,"Novel117",1,"Novel26",3,4414,"4","0",1,"Exp 2",15931.8296875,FALSE,TRUE,TRUE,4,0
"466","1255","Aug 14 2013","19:54:45",8,1,"Same",1,"Novel23",1,"Novel23",1,1895,"4","0",1,"Exp 2",15931.8296875,TRUE,TRUE,FALSE,4,0
"467","1255","Aug 14 2013","19:54:45",10,2,"New Label",1,"Novel124",0,"Novel66",2,2176,"4","0",1,"Exp 2",15931.8296875,FALSE,TRUE,FALSE,4,0
"468","1255","Aug 14 2013","19:54:45",12,3,"Same",1,"Novel50",1,"Novel50",1,1721,"4","0",1,"Exp 2",15931.8296875,TRUE,TRUE,FALSE,4,0
"469","1255","Aug 14 2013","19:54:45",14,4,"New Label",0,"Novel82",3,"Novel128",3,3509,"4","0",1,"Exp 2",15931.8296875,FALSE,TRUE,FALSE,4,0
"470","1255","Aug 14 2013","19:54:45",16,5,"Same",0,"Novel134",2,"Novel134",0,912,"4","0",1,"Exp 2",15931.8296875,TRUE,TRUE,FALSE,4,0
"471","1255","Aug 14 2013","19:54:45",18,6,"New Label",0,"Novel62",3,"Novel29",0,3616,"4","0",1,"Exp 2",15931.8296875,FALSE,TRUE,FALSE,4,0
"472","1255","Aug 14 2013","19:54:45",20,7,"Same",0,"Novel54",3,"Novel54",0,1314,"4","0",1,"Exp 2",15931.8296875,TRUE,TRUE,FALSE,4,0
"473","1256","Aug 10 2013","10:51:03",7,0,"New Label",1,"Novel140",5,"Novel42",3,5366,"8","1",1,"Exp 2",15927.4521180556,FALSE,TRUE,TRUE,8,1
"474","1256","Aug 10 2013","10:51:03",8,1,"Same",1,"Novel105",0,"Novel105",0,2013,"8","1",1,"Exp 2",15927.4521180556,TRUE,TRUE,FALSE,8,1
"475","1256","Aug 10 2013","10:51:03",11,2,"New Label",0,"Novel79",2,"Novel19",6,2369,"8","1",1,"Exp 2",15927.4521180556,FALSE,TRUE,FALSE,8,1
"476","1256","Aug 10 2013","10:51:03",12,3,"Same",1,"Novel30",3,"Novel30",3,2202,"8","1",1,"Exp 2",15927.4521180556,TRUE,TRUE,FALSE,8,1
"477","1256","Aug 10 2013","10:51:03",15,4,"New Label",1,"Novel14",3,"Novel89",0,3379,"8","1",1,"Exp 2",15927.4521180556,FALSE,TRUE,FALSE,8,1
"478","1256","Aug 10 2013","10:51:03",16,5,"Same",0,"Novel136",1,"Novel136",4,1427,"8","1",1,"Exp 2",15927.4521180556,TRUE,TRUE,FALSE,8,1
"479","1256","Aug 10 2013","10:51:03",19,6,"New Label",0,"Novel70",2,"Novel78",1,1900,"8","1",1,"Exp 2",15927.4521180556,FALSE,TRUE,FALSE,8,1
"480","1256","Aug 10 2013","10:51:03",20,7,"Same",0,"Novel15",5,"Novel15",2,3023,"8","1",1,"Exp 2",15927.4521180556,TRUE,TRUE,FALSE,8,1
"481","1257","Aug 05 2013","21:47:54",9,0,"Same",0,"Novel46",0,"Novel46",1,2342,"2","3",1,"Exp 2",15922.9082638889,TRUE,TRUE,TRUE,2,3
"482","1257","Aug 05 2013","21:47:54",10,1,"New Label",0,"Novel99",0,"Novel69",0,2367,"2","3",1,"Exp 2",15922.9082638889,FALSE,TRUE,FALSE,2,3
"483","1257","Aug 05 2013","21:47:54",11,2,"Same",1,"Novel12",0,"Novel12",0,1918,"2","3",1,"Exp 2",15922.9082638889,TRUE,TRUE,FALSE,2,3
"484","1257","Aug 05 2013","21:47:54",12,3,"New Label",0,"Novel80",0,"Novel80",1,3229,"2","3",1,"Exp 2",15922.9082638889,TRUE,TRUE,FALSE,2,3
"485","1257","Aug 05 2013","21:47:54",17,4,"Same",1,"Novel68",1,"Novel68",1,1765,"2","3",1,"Exp 2",15922.9082638889,TRUE,TRUE,FALSE,2,3
"486","1257","Aug 05 2013","21:47:54",18,5,"New Label",1,"Novel45",0,"Novel32",1,3052,"2","3",1,"Exp 2",15922.9082638889,FALSE,TRUE,FALSE,2,3
"487","1257","Aug 05 2013","21:47:54",19,6,"Same",0,"Novel14",0,"Novel14",1,2404,"2","3",1,"Exp 2",15922.9082638889,TRUE,TRUE,FALSE,2,3
"488","1257","Aug 05 2013","21:47:54",20,7,"New Label",1,"Novel112",0,"Novel29",1,3884,"2","3",1,"Exp 2",15922.9082638889,FALSE,TRUE,FALSE,2,3
"489","1258","Aug 06 2013","00:32:45",13,0,"Same",1,"Novel10",7,"Novel134",3,7815,"8","7",1,"Exp 2",15923.0227430556,FALSE,TRUE,TRUE,8,7
"490","1258","Aug 06 2013","00:32:45",14,1,"New Label",1,"Novel102",2,"Novel81",3,2913,"8","7",1,"Exp 2",15923.0227430556,FALSE,TRUE,FALSE,8,7
"491","1258","Aug 06 2013","00:32:45",15,2,"Same",1,"Novel113",5,"Novel113",5,4093,"8","7",1,"Exp 2",15923.0227430556,TRUE,TRUE,FALSE,8,7
"492","1258","Aug 06 2013","00:32:45",16,3,"New Label",1,"Novel31",2,"Novel33",3,2408,"8","7",1,"Exp 2",15923.0227430556,FALSE,TRUE,FALSE,8,7
"493","1258","Aug 06 2013","00:32:45",17,4,"Same",0,"Novel61",4,"Novel61",1,3181,"8","7",1,"Exp 2",15923.0227430556,TRUE,TRUE,FALSE,8,7
"494","1258","Aug 06 2013","00:32:45",18,5,"New Label",0,"Novel41",7,"Novel47",2,2727,"8","7",1,"Exp 2",15923.0227430556,FALSE,TRUE,FALSE,8,7
"495","1258","Aug 06 2013","00:32:45",19,6,"Same",0,"Novel56",4,"Novel56",1,2605,"8","7",1,"Exp 2",15923.0227430556,TRUE,TRUE,FALSE,8,7
"496","1258","Aug 06 2013","00:32:45",20,7,"New Label",0,"Novel136",1,"Novel48",3,3381,"8","7",1,"Exp 2",15923.0227430556,FALSE,TRUE,FALSE,8,7
"497","1259","Aug 09 2013","12:19:31",7,0,"Same",1,"Novel16",0,"Novel16",0,1593,"2","1",1,"Exp 2",15926.5135532407,TRUE,TRUE,TRUE,2,1
"498","1259","Aug 09 2013","12:19:31",8,1,"New Label",0,"Novel19",1,"Novel85",1,1757,"2","1",1,"Exp 2",15926.5135532407,FALSE,TRUE,FALSE,2,1
"499","1259","Aug 09 2013","12:19:31",11,2,"Same",0,"Novel26",1,"Novel26",0,1596,"2","1",1,"Exp 2",15926.5135532407,TRUE,TRUE,FALSE,2,1
"500","1259","Aug 09 2013","12:19:31",12,3,"New Label",1,"Novel70",0,"Novel123",1,1297,"2","1",1,"Exp 2",15926.5135532407,FALSE,TRUE,FALSE,2,1
"501","1259","Aug 09 2013","12:19:31",15,4,"Same",1,"Novel126",1,"Novel126",1,1245,"2","1",1,"Exp 2",15926.5135532407,TRUE,TRUE,FALSE,2,1
"502","1259","Aug 09 2013","12:19:31",16,5,"New Label",0,"Novel32",1,"Novel32",0,1237,"2","1",1,"Exp 2",15926.5135532407,TRUE,TRUE,FALSE,2,1
"503","1259","Aug 09 2013","12:19:31",19,6,"Same",0,"Novel21",0,"Novel21",1,1077,"2","1",1,"Exp 2",15926.5135532407,TRUE,TRUE,FALSE,2,1
"504","1259","Aug 09 2013","12:19:31",20,7,"New Label",1,"Novel8",0,"Novel8",0,1363,"2","1",1,"Exp 2",15926.5135532407,TRUE,TRUE,FALSE,2,1
"505","1260","Aug 10 2013","12:44:36",9,0,"Same",1,"Novel38",0,"Novel38",0,1694,"4","3",1,"Exp 2",15927.5309722222,TRUE,TRUE,TRUE,4,3
"506","1260","Aug 10 2013","12:44:36",10,1,"New Label",1,"Novel134",1,"Novel60",3,5041,"4","3",1,"Exp 2",15927.5309722222,FALSE,TRUE,FALSE,4,3
"507","1260","Aug 10 2013","12:44:36",11,2,"Same",0,"Novel1",0,"Novel1",1,1949,"4","3",1,"Exp 2",15927.5309722222,TRUE,TRUE,FALSE,4,3
"508","1260","Aug 10 2013","12:44:36",12,3,"New Label",0,"Novel132",2,"Novel89",2,5062,"4","3",1,"Exp 2",15927.5309722222,FALSE,TRUE,FALSE,4,3
"509","1260","Aug 10 2013","12:44:36",17,4,"Same",0,"Novel22",1,"Novel22",2,2175,"4","3",1,"Exp 2",15927.5309722222,TRUE,TRUE,FALSE,4,3
"510","1260","Aug 10 2013","12:44:36",18,5,"New Label",0,"Novel92",1,"Novel92",2,3604,"4","3",1,"Exp 2",15927.5309722222,TRUE,TRUE,FALSE,4,3
"511","1260","Aug 10 2013","12:44:36",19,6,"Same",1,"Novel3",3,"Novel3",3,3348,"4","3",1,"Exp 2",15927.5309722222,TRUE,TRUE,FALSE,4,3
"512","1260","Aug 10 2013","12:44:36",20,7,"New Label",1,"Novel140",0,"Novel18",3,4145,"4","3",1,"Exp 2",15927.5309722222,FALSE,TRUE,FALSE,4,3
"513","1261","Aug 09 2013","12:34:43",9,0,"New Label",0,"Novel71",0,"Novel132",0,5121,"2","3",1,"Exp 2",15926.5241087963,FALSE,TRUE,TRUE,2,3
"514","1261","Aug 09 2013","12:34:43",10,1,"Same",0,"Novel19",1,"Novel19",0,3123,"2","3",1,"Exp 2",15926.5241087963,TRUE,TRUE,FALSE,2,3
"515","1261","Aug 09 2013","12:34:43",11,2,"New Label",1,"Novel75",0,"Novel60",1,1665,"2","3",1,"Exp 2",15926.5241087963,FALSE,TRUE,FALSE,2,3
"516","1261","Aug 09 2013","12:34:43",12,3,"Same",0,"Novel24",1,"Novel24",0,3481,"2","3",1,"Exp 2",15926.5241087963,TRUE,TRUE,FALSE,2,3
"517","1261","Aug 09 2013","12:34:43",17,4,"New Label",0,"Novel52",0,"Novel117",0,1779,"2","3",1,"Exp 2",15926.5241087963,FALSE,TRUE,FALSE,2,3
"518","1261","Aug 09 2013","12:34:43",18,5,"Same",1,"Novel81",0,"Novel21",1,2645,"2","3",1,"Exp 2",15926.5241087963,FALSE,TRUE,FALSE,2,3
"519","1261","Aug 09 2013","12:34:43",19,6,"New Label",1,"Novel34",0,"Novel73",1,1546,"2","3",1,"Exp 2",15926.5241087963,FALSE,TRUE,FALSE,2,3
"520","1261","Aug 09 2013","12:34:43",20,7,"Same",1,"Novel79",0,"Novel79",0,2092,"2","3",1,"Exp 2",15926.5241087963,TRUE,TRUE,FALSE,2,3
"521","1262","Aug 10 2013","11:35:42",13,0,"Same",0,"Novel122",2,"Novel122",1,2553,"3","7",1,"Exp 2",15927.483125,TRUE,TRUE,TRUE,3,7
"522","1262","Aug 10 2013","11:35:42",14,1,"New Label",1,"Novel130",2,"Novel70",1,3069,"3","7",1,"Exp 2",15927.483125,FALSE,TRUE,FALSE,3,7
"523","1262","Aug 10 2013","11:35:42",15,2,"Same",1,"Novel79",1,"Novel79",1,2048,"3","7",1,"Exp 2",15927.483125,TRUE,TRUE,FALSE,3,7
"524","1262","Aug 10 2013","11:35:42",16,3,"New Label",0,"Novel127",2,"Novel49",2,3252,"3","7",1,"Exp 2",15927.483125,FALSE,TRUE,FALSE,3,7
"525","1262","Aug 10 2013","11:35:42",17,4,"Same",1,"Novel35",2,"Novel35",2,1783,"3","7",1,"Exp 2",15927.483125,TRUE,TRUE,FALSE,3,7
"526","1262","Aug 10 2013","11:35:42",18,5,"New Label",1,"Novel86",2,"Novel36",1,4429,"3","7",1,"Exp 2",15927.483125,FALSE,TRUE,FALSE,3,7
"527","1262","Aug 10 2013","11:35:42",19,6,"Same",0,"Novel68",2,"Novel68",0,2803,"3","7",1,"Exp 2",15927.483125,TRUE,TRUE,FALSE,3,7
"528","1262","Aug 10 2013","11:35:42",20,7,"New Label",0,"Novel76",0,"Novel102",0,2767,"3","7",1,"Exp 2",15927.483125,FALSE,TRUE,FALSE,3,7
"529","1263","Aug 05 2013","21:42:11",7,0,"Same",1,"Novel10",1,"Novel10",1,1291,"4","1",1,"Exp 2",15922.9042939815,TRUE,TRUE,TRUE,4,1
"530","1263","Aug 05 2013","21:42:11",8,1,"New Label",0,"Novel89",1,"Novel89",0,5240,"4","1",1,"Exp 2",15922.9042939815,TRUE,TRUE,FALSE,4,1
"531","1263","Aug 05 2013","21:42:11",11,2,"Same",0,"Novel28",2,"Novel28",1,2054,"4","1",1,"Exp 2",15922.9042939815,TRUE,TRUE,FALSE,4,1
"532","1263","Aug 05 2013","21:42:11",12,3,"New Label",1,"Novel66",3,"Novel41",0,4025,"4","1",1,"Exp 2",15922.9042939815,FALSE,TRUE,FALSE,4,1
"533","1263","Aug 05 2013","21:42:11",15,4,"Same",1,"Novel128",1,"Novel128",1,1056,"4","1",1,"Exp 2",15922.9042939815,TRUE,TRUE,FALSE,4,1
"534","1263","Aug 05 2013","21:42:11",16,5,"New Label",0,"Novel136",0,"Novel136",3,1820,"4","1",1,"Exp 2",15922.9042939815,TRUE,TRUE,FALSE,4,1
"535","1263","Aug 05 2013","21:42:11",19,6,"Same",0,"Novel135",3,"Novel135",2,1090,"4","1",1,"Exp 2",15922.9042939815,TRUE,TRUE,FALSE,4,1
"536","1263","Aug 05 2013","21:42:11",20,7,"New Label",1,"Novel65",0,"Novel65",0,3958,"4","1",1,"Exp 2",15922.9042939815,TRUE,TRUE,FALSE,4,1
"537","1264","Aug 14 2013","20:21:56",6,0,"Same",0,"Novel14",7,"Novel14",1,2252,"8","0",1,"Exp 2",15931.8485648148,TRUE,TRUE,TRUE,8,0
"538","1264","Aug 14 2013","20:21:56",8,1,"New Label",1,"Novel34",0,"Novel20",4,6805,"8","0",1,"Exp 2",15931.8485648148,FALSE,TRUE,FALSE,8,0
"539","1264","Aug 14 2013","20:21:56",10,2,"Same",1,"Novel128",7,"Novel128",7,1685,"8","0",1,"Exp 2",15931.8485648148,TRUE,TRUE,FALSE,8,0
"540","1264","Aug 14 2013","20:21:56",12,3,"New Label",0,"Novel32",2,"Novel135",5,6920,"8","0",1,"Exp 2",15931.8485648148,FALSE,TRUE,FALSE,8,0
"541","1264","Aug 14 2013","20:21:56",14,4,"Same",0,"Novel138",1,"Novel138",7,1639,"8","0",1,"Exp 2",15931.8485648148,TRUE,TRUE,FALSE,8,0
"542","1264","Aug 14 2013","20:21:56",16,5,"New Label",0,"Novel12",6,"Novel118",2,5855,"8","0",1,"Exp 2",15931.8485648148,FALSE,TRUE,FALSE,8,0
"543","1264","Aug 14 2013","20:21:56",18,6,"Same",1,"Novel90",3,"Novel90",3,1573,"8","0",1,"Exp 2",15931.8485648148,TRUE,TRUE,FALSE,8,0
"544","1264","Aug 14 2013","20:21:56",20,7,"New Label",1,"Novel71",1,"Novel23",0,2921,"8","0",1,"Exp 2",15931.8485648148,FALSE,TRUE,FALSE,8,0
"545","1265","Aug 14 2013","17:49:55",6,0,"Same",0,"Novel104",3,"Novel104",1,2816,"4","0",1,"Exp 2",15931.7429976852,TRUE,TRUE,TRUE,4,0
"546","1265","Aug 14 2013","17:49:55",8,1,"New Label",1,"Novel91",1,"Novel91",1,10507,"4","0",1,"Exp 2",15931.7429976852,TRUE,TRUE,FALSE,4,0
"547","1265","Aug 14 2013","17:49:55",10,2,"Same",1,"Novel118",1,"Novel118",1,1524,"4","0",1,"Exp 2",15931.7429976852,TRUE,TRUE,FALSE,4,0
"548","1265","Aug 14 2013","17:49:55",12,3,"New Label",0,"Novel92",0,"Novel126",3,4638,"4","0",1,"Exp 2",15931.7429976852,FALSE,TRUE,FALSE,4,0
"549","1265","Aug 14 2013","17:49:55",14,4,"Same",1,"Novel101",3,"Novel101",3,1898,"4","0",1,"Exp 2",15931.7429976852,TRUE,TRUE,FALSE,4,0
"550","1265","Aug 14 2013","17:49:55",16,5,"New Label",0,"Novel37",2,"Novel37",3,3396,"4","0",1,"Exp 2",15931.7429976852,TRUE,TRUE,FALSE,4,0
"551","1265","Aug 14 2013","17:49:55",18,6,"Same",0,"Novel36",3,"Novel36",1,2763,"4","0",1,"Exp 2",15931.7429976852,TRUE,TRUE,FALSE,4,0
"552","1265","Aug 14 2013","17:49:55",20,7,"New Label",1,"Novel100",1,"Novel7",0,5453,"4","0",1,"Exp 2",15931.7429976852,FALSE,TRUE,FALSE,4,0
"553","1266","Aug 05 2013","23:42:55",13,0,"New Label",0,"Novel2",1,"Novel2",3,1881,"4","7",1,"Exp 2",15922.9881365741,TRUE,TRUE,TRUE,4,7
"554","1266","Aug 05 2013","23:42:55",14,1,"Same",0,"Novel128",1,"Novel128",3,1577,"4","7",1,"Exp 2",15922.9881365741,TRUE,TRUE,FALSE,4,7
"555","1266","Aug 05 2013","23:42:55",15,2,"New Label",0,"Novel8",0,"Novel67",3,1818,"4","7",1,"Exp 2",15922.9881365741,FALSE,TRUE,FALSE,4,7
"556","1266","Aug 05 2013","23:42:55",16,3,"Same",1,"Novel68",0,"Novel130",3,3190,"4","7",1,"Exp 2",15922.9881365741,FALSE,TRUE,FALSE,4,7
"557","1266","Aug 05 2013","23:42:55",17,4,"New Label",1,"Novel100",1,"Novel5",2,2032,"4","7",1,"Exp 2",15922.9881365741,FALSE,TRUE,FALSE,4,7
"558","1266","Aug 05 2013","23:42:55",18,5,"Same",1,"Novel133",2,"Novel65",3,3277,"4","7",1,"Exp 2",15922.9881365741,FALSE,TRUE,FALSE,4,7
"559","1266","Aug 05 2013","23:42:55",19,6,"New Label",1,"Novel105",3,"Novel29",2,1377,"4","7",1,"Exp 2",15922.9881365741,FALSE,TRUE,FALSE,4,7
"560","1266","Aug 05 2013","23:42:55",20,7,"Same",0,"Novel53",0,"Novel53",1,1258,"4","7",1,"Exp 2",15922.9881365741,TRUE,TRUE,FALSE,4,7
"561","1267","Aug 05 2013","18:33:14",7,0,"New Label",0,"Novel51",1,"Novel2",1,4673,"3","1",1,"Exp 2",15922.7730787037,FALSE,TRUE,TRUE,3,1
"562","1267","Aug 05 2013","18:33:14",8,1,"Same",0,"Novel59",2,"Novel59",1,1650,"3","1",1,"Exp 2",15922.7730787037,TRUE,TRUE,FALSE,3,1
"563","1267","Aug 05 2013","18:33:14",11,2,"New Label",1,"Novel37",1,"Novel21",2,1448,"3","1",1,"Exp 2",15922.7730787037,FALSE,TRUE,FALSE,3,1
"564","1267","Aug 05 2013","18:33:14",12,3,"Same",1,"Novel22",0,"Novel22",0,978,"3","1",1,"Exp 2",15922.7730787037,TRUE,TRUE,FALSE,3,1
"565","1267","Aug 05 2013","18:33:14",15,4,"New Label",0,"Novel30",0,"Novel125",0,4641,"3","1",1,"Exp 2",15922.7730787037,FALSE,TRUE,FALSE,3,1
"566","1267","Aug 05 2013","18:33:14",16,5,"Same",0,"Novel136",2,"Novel136",0,1538,"3","1",1,"Exp 2",15922.7730787037,TRUE,TRUE,FALSE,3,1
"567","1267","Aug 05 2013","18:33:14",19,6,"New Label",1,"Novel108",0,"Novel47",2,1839,"3","1",1,"Exp 2",15922.7730787037,FALSE,TRUE,FALSE,3,1
"568","1267","Aug 05 2013","18:33:14",20,7,"Same",1,"Novel80",2,"Novel43",1,1454,"3","1",1,"Exp 2",15922.7730787037,FALSE,TRUE,FALSE,3,1
"569","1268","Aug 06 2013","01:37:02",9,0,"New Label",1,"Novel16",2,"Novel15",0,3795,"8","3",1,"Exp 2",15923.0673842593,FALSE,TRUE,TRUE,8,3
"570","1268","Aug 06 2013","01:37:02",10,1,"Same",1,"Novel134",0,"Novel134",0,5313,"8","3",1,"Exp 2",15923.0673842593,TRUE,TRUE,FALSE,8,3
"571","1268","Aug 06 2013","01:37:02",11,2,"New Label",1,"Novel35",0,"Novel59",7,4483,"8","3",1,"Exp 2",15923.0673842593,FALSE,TRUE,FALSE,8,3
"572","1268","Aug 06 2013","01:37:02",12,3,"Same",1,"Novel103",2,"Novel103",2,3180,"8","3",1,"Exp 2",15923.0673842593,TRUE,TRUE,FALSE,8,3
"573","1268","Aug 06 2013","01:37:02",17,4,"New Label",0,"Novel110",6,"Novel84",4,2158,"8","3",1,"Exp 2",15923.0673842593,FALSE,TRUE,FALSE,8,3
"574","1268","Aug 06 2013","01:37:02",18,5,"Same",0,"Novel72",4,"Novel66",4,3597,"8","3",1,"Exp 2",15923.0673842593,FALSE,TRUE,FALSE,8,3
"575","1268","Aug 06 2013","01:37:02",19,6,"New Label",0,"Novel94",0,"Novel58",3,3155,"8","3",1,"Exp 2",15923.0673842593,FALSE,TRUE,FALSE,8,3
"576","1268","Aug 06 2013","01:37:02",20,7,"Same",0,"Novel124",0,"Novel124",6,1550,"8","3",1,"Exp 2",15923.0673842593,TRUE,TRUE,FALSE,8,3
"577","1269","Aug 14 2013","18:52:34",6,0,"Same",1,"Novel138",1,"Novel138",1,1092,"2","0",1,"Exp 2",15931.7865046296,TRUE,TRUE,TRUE,2,0
"578","1269","Aug 14 2013","18:52:34",8,1,"New Label",0,"Novel116",0,"Novel116",1,2142,"2","0",1,"Exp 2",15931.7865046296,TRUE,TRUE,FALSE,2,0
"579","1269","Aug 14 2013","18:52:34",10,2,"Same",1,"Novel6",0,"Novel6",0,1017,"2","0",1,"Exp 2",15931.7865046296,TRUE,TRUE,FALSE,2,0
"580","1269","Aug 14 2013","18:52:34",12,3,"New Label",1,"Novel97",1,"Novel97",1,1507,"2","0",1,"Exp 2",15931.7865046296,TRUE,TRUE,FALSE,2,0
"581","1269","Aug 14 2013","18:52:34",14,4,"Same",0,"Novel136",1,"Novel136",0,2074,"2","0",1,"Exp 2",15931.7865046296,TRUE,TRUE,FALSE,2,0
"582","1269","Aug 14 2013","18:52:34",16,5,"New Label",1,"Novel18",1,"Novel14",0,1846,"2","0",1,"Exp 2",15931.7865046296,FALSE,TRUE,FALSE,2,0
"583","1269","Aug 14 2013","18:52:34",18,6,"Same",0,"Novel106",1,"Novel106",0,1320,"2","0",1,"Exp 2",15931.7865046296,TRUE,TRUE,FALSE,2,0
"584","1269","Aug 14 2013","18:52:34",20,7,"New Label",0,"Novel110",1,"Novel48",1,1678,"2","0",1,"Exp 2",15931.7865046296,FALSE,TRUE,FALSE,2,0
"585","1270","Aug 14 2013","22:52:08",6,0,"Same",1,"Novel89",3,"Novel93",0,3119,"4","0",1,"Exp 2",15931.9528703704,FALSE,TRUE,TRUE,4,0
"586","1270","Aug 14 2013","22:52:08",8,1,"New Label",0,"Novel22",3,"Novel22",0,5483,"4","0",1,"Exp 2",15931.9528703704,TRUE,TRUE,FALSE,4,0
"587","1270","Aug 14 2013","22:52:08",10,2,"Same",0,"Novel12",1,"Novel65",1,3411,"4","0",1,"Exp 2",15931.9528703704,FALSE,TRUE,FALSE,4,0
"588","1270","Aug 14 2013","22:52:08",12,3,"New Label",0,"Novel62",0,"Novel44",1,5106,"4","0",1,"Exp 2",15931.9528703704,FALSE,TRUE,FALSE,4,0
"589","1270","Aug 14 2013","22:52:08",14,4,"Same",0,"Novel109",2,"Novel109",3,2749,"4","0",1,"Exp 2",15931.9528703704,TRUE,TRUE,FALSE,4,0
"590","1270","Aug 14 2013","22:52:08",16,5,"New Label",1,"Novel103",2,"Novel61",3,2733,"4","0",1,"Exp 2",15931.9528703704,FALSE,TRUE,FALSE,4,0
"591","1270","Aug 14 2013","22:52:08",18,6,"Same",1,"Novel134",0,"Novel134",0,2189,"4","0",1,"Exp 2",15931.9528703704,TRUE,TRUE,FALSE,4,0
"592","1270","Aug 14 2013","22:52:08",20,7,"New Label",1,"Novel56",1,"Novel90",0,9271,"4","0",1,"Exp 2",15931.9528703704,FALSE,TRUE,FALSE,4,0
"593","1271","Aug 10 2013","12:29:04",13,0,"Same",0,"Novel102",1,"Novel102",2,4194,"3","7",1,"Exp 2",15927.5201851852,TRUE,TRUE,TRUE,3,7
"594","1271","Aug 10 2013","12:29:04",14,1,"New Label",0,"Novel2",1,"Novel76",0,5376,"3","7",1,"Exp 2",15927.5201851852,FALSE,TRUE,FALSE,3,7
"595","1271","Aug 10 2013","12:29:04",15,2,"Same",1,"Novel84",0,"Novel84",0,3360,"3","7",1,"Exp 2",15927.5201851852,TRUE,TRUE,FALSE,3,7
"596","1271","Aug 10 2013","12:29:04",16,3,"New Label",0,"Novel135",0,"Novel105",1,3849,"3","7",1,"Exp 2",15927.5201851852,FALSE,TRUE,FALSE,3,7
"597","1271","Aug 10 2013","12:29:04",17,4,"Same",0,"Novel115",2,"Novel115",1,3344,"3","7",1,"Exp 2",15927.5201851852,TRUE,TRUE,FALSE,3,7
"598","1271","Aug 10 2013","12:29:04",18,5,"New Label",1,"Novel118",1,"Novel32",2,3382,"3","7",1,"Exp 2",15927.5201851852,FALSE,TRUE,FALSE,3,7
"599","1271","Aug 10 2013","12:29:04",19,6,"Same",1,"Novel16",2,"Novel16",2,2698,"3","7",1,"Exp 2",15927.5201851852,TRUE,TRUE,FALSE,3,7
"600","1271","Aug 10 2013","12:29:04",20,7,"New Label",1,"Novel50",0,"Novel131",2,4707,"3","7",1,"Exp 2",15927.5201851852,FALSE,TRUE,FALSE,3,7
"601","1272","Aug 06 2013","00:00:16",13,0,"New Label",0,"Novel35",2,"Novel8",0,1913,"3","7",1,"Exp 2",15923.0001851852,FALSE,TRUE,TRUE,3,7
"602","1272","Aug 06 2013","00:00:16",14,1,"Same",1,"Novel11",1,"Novel5",2,2103,"3","7",1,"Exp 2",15923.0001851852,FALSE,TRUE,FALSE,3,7
"603","1272","Aug 06 2013","00:00:16",15,2,"New Label",0,"Novel14",1,"Novel104",1,1587,"3","7",1,"Exp 2",15923.0001851852,FALSE,TRUE,FALSE,3,7
"604","1272","Aug 06 2013","00:00:16",16,3,"Same",1,"Novel47",2,"Novel12",1,1813,"3","7",1,"Exp 2",15923.0001851852,FALSE,TRUE,FALSE,3,7
"605","1272","Aug 06 2013","00:00:16",17,4,"New Label",1,"Novel111",0,"Novel3",1,1671,"3","7",1,"Exp 2",15923.0001851852,FALSE,TRUE,FALSE,3,7
"606","1272","Aug 06 2013","00:00:16",18,5,"Same",0,"Novel70",0,"Novel139",0,1698,"3","7",1,"Exp 2",15923.0001851852,FALSE,TRUE,FALSE,3,7
"607","1272","Aug 06 2013","00:00:16",19,6,"New Label",1,"Novel103",2,"Novel66",1,1640,"3","7",1,"Exp 2",15923.0001851852,FALSE,TRUE,FALSE,3,7
"608","1272","Aug 06 2013","00:00:16",20,7,"Same",0,"Novel113",0,"Novel113",2,1893,"3","7",1,"Exp 2",15923.0001851852,TRUE,TRUE,FALSE,3,7
"609","1273","Aug 05 2013","18:29:49",7,0,"New Label",0,"Novel45",1,"Novel50",1,540,"3","1",1,"Exp 2",15922.7707060185,FALSE,TRUE,TRUE,3,1
"610","1273","Aug 05 2013","18:29:49",8,1,"Same",1,"Novel119",0,"Novel138",2,4021,"3","1",1,"Exp 2",15922.7707060185,FALSE,TRUE,FALSE,3,1
"611","1273","Aug 05 2013","18:29:49",11,2,"New Label",0,"Novel89",2,"Novel89",0,1904,"3","1",1,"Exp 2",15922.7707060185,TRUE,TRUE,FALSE,3,1
"612","1273","Aug 05 2013","18:29:49",12,3,"Same",0,"Novel94",1,"Novel51",1,251,"3","1",1,"Exp 2",15922.7707060185,FALSE,TRUE,FALSE,3,1
"613","1273","Aug 05 2013","18:29:49",15,4,"New Label",1,"Novel22",2,"Novel22",2,2515,"3","1",1,"Exp 2",15922.7707060185,TRUE,TRUE,FALSE,3,1
"614","1273","Aug 05 2013","18:29:49",16,5,"Same",0,"Novel4",2,"Novel4",1,2675,"3","1",1,"Exp 2",15922.7707060185,TRUE,TRUE,FALSE,3,1
"615","1273","Aug 05 2013","18:29:49",19,6,"New Label",1,"Novel76",2,"Novel31",1,1305,"3","1",1,"Exp 2",15922.7707060185,FALSE,TRUE,FALSE,3,1
"616","1273","Aug 05 2013","18:29:49",20,7,"Same",1,"Novel1",1,"Novel1",1,1170,"3","1",1,"Exp 2",15922.7707060185,TRUE,TRUE,FALSE,3,1
"617","1274","Aug 14 2013","18:29:08",6,0,"New Label",0,"Novel110",2,"Novel119",1,10258,"3","0",1,"Exp 2",15931.7702314815,FALSE,TRUE,TRUE,3,0
"618","1274","Aug 14 2013","18:29:08",8,1,"Same",1,"Novel74",2,"Novel74",2,3007,"3","0",1,"Exp 2",15931.7702314815,TRUE,TRUE,FALSE,3,0
"619","1274","Aug 14 2013","18:29:08",10,2,"New Label",0,"Novel107",2,"Novel14",2,3108,"3","0",1,"Exp 2",15931.7702314815,FALSE,TRUE,FALSE,3,0
"620","1274","Aug 14 2013","18:29:08",12,3,"Same",0,"Novel28",1,"Novel28",2,2323,"3","0",1,"Exp 2",15931.7702314815,TRUE,TRUE,FALSE,3,0
"621","1274","Aug 14 2013","18:29:08",14,4,"New Label",1,"Novel134",0,"Novel21",2,2970,"3","0",1,"Exp 2",15931.7702314815,FALSE,TRUE,FALSE,3,0
"622","1274","Aug 14 2013","18:29:08",16,5,"Same",0,"Novel124",2,"Novel124",0,3020,"3","0",1,"Exp 2",15931.7702314815,TRUE,TRUE,FALSE,3,0
"623","1274","Aug 14 2013","18:29:08",18,6,"New Label",1,"Novel24",2,"Novel85",0,3318,"3","0",1,"Exp 2",15931.7702314815,FALSE,TRUE,FALSE,3,0
"624","1274","Aug 14 2013","18:29:08",20,7,"Same",1,"Novel44",1,"Novel44",1,944,"3","0",1,"Exp 2",15931.7702314815,TRUE,TRUE,FALSE,3,0
"625","1275","Aug 15 2013","04:32:30",6,0,"New Label",0,"Novel101",0,"Novel101",1,1334,"2","0",1,"Exp 2",15932.1892361111,TRUE,TRUE,TRUE,2,0
"626","1275","Aug 15 2013","04:32:30",8,1,"Same",1,"Novel56",1,"Novel56",1,1465,"2","0",1,"Exp 2",15932.1892361111,TRUE,TRUE,FALSE,2,0
"627","1275","Aug 15 2013","04:32:30",10,2,"New Label",1,"Novel45",1,"Novel67",0,1951,"2","0",1,"Exp 2",15932.1892361111,FALSE,TRUE,FALSE,2,0
"628","1275","Aug 15 2013","04:32:30",12,3,"Same",0,"Novel122",1,"Novel12",1,2468,"2","0",1,"Exp 2",15932.1892361111,FALSE,TRUE,FALSE,2,0
"629","1275","Aug 15 2013","04:32:30",14,4,"New Label",1,"Novel98",1,"Novel98",1,1757,"2","0",1,"Exp 2",15932.1892361111,TRUE,TRUE,FALSE,2,0
"630","1275","Aug 15 2013","04:32:30",16,5,"Same",0,"Novel32",0,"Novel32",1,2116,"2","0",1,"Exp 2",15932.1892361111,TRUE,TRUE,FALSE,2,0
"631","1275","Aug 15 2013","04:32:30",18,6,"New Label",0,"Novel59",0,"Novel85",0,1029,"2","0",1,"Exp 2",15932.1892361111,FALSE,TRUE,FALSE,2,0
"632","1275","Aug 15 2013","04:32:30",20,7,"Same",1,"Novel42",0,"Novel42",0,2611,"2","0",1,"Exp 2",15932.1892361111,TRUE,TRUE,FALSE,2,0
"633","1276","Aug 05 2013","22:05:06",7,0,"Same",0,"Novel85",6,"Novel85",5,2615,"8","1",1,"Exp 2",15922.9202083333,TRUE,TRUE,TRUE,8,1
"634","1276","Aug 05 2013","22:05:06",8,1,"New Label",0,"Novel77",1,"Novel79",4,2244,"8","1",1,"Exp 2",15922.9202083333,FALSE,TRUE,FALSE,8,1
"635","1276","Aug 05 2013","22:05:06",11,2,"Same",1,"Novel80",6,"Novel80",6,1838,"8","1",1,"Exp 2",15922.9202083333,TRUE,TRUE,FALSE,8,1
"636","1276","Aug 05 2013","22:05:06",12,3,"New Label",1,"Novel134",3,"Novel106",1,2897,"8","1",1,"Exp 2",15922.9202083333,FALSE,TRUE,FALSE,8,1
"637","1276","Aug 05 2013","22:05:06",15,4,"Same",1,"Novel76",1,"Novel76",1,6993,"8","1",1,"Exp 2",15922.9202083333,TRUE,TRUE,FALSE,8,1
"638","1276","Aug 05 2013","22:05:06",16,5,"New Label",1,"Novel105",2,"Novel105",2,1753,"8","1",1,"Exp 2",15922.9202083333,TRUE,TRUE,FALSE,8,1
"639","1276","Aug 05 2013","22:05:06",19,6,"Same",0,"Novel57",5,"Novel57",0,2370,"8","1",1,"Exp 2",15922.9202083333,TRUE,TRUE,FALSE,8,1
"640","1276","Aug 05 2013","22:05:06",20,7,"New Label",0,"Novel127",0,"Novel127",7,1764,"8","1",1,"Exp 2",15922.9202083333,TRUE,TRUE,FALSE,8,1
"641","1277","Aug 09 2013","12:30:37",9,0,"Same",0,"Novel36",0,"Novel36",1,2858,"2","3",1,"Exp 2",15926.5212615741,TRUE,TRUE,TRUE,2,3
"642","1277","Aug 09 2013","12:30:37",10,1,"New Label",0,"Novel73",0,"Novel77",0,1876,"2","3",1,"Exp 2",15926.5212615741,FALSE,TRUE,FALSE,2,3
"643","1277","Aug 09 2013","12:30:37",11,2,"Same",1,"Novel74",1,"Novel74",1,1504,"2","3",1,"Exp 2",15926.5212615741,TRUE,TRUE,FALSE,2,3
"644","1277","Aug 09 2013","12:30:37",12,3,"New Label",1,"Novel107",0,"Novel127",1,1922,"2","3",1,"Exp 2",15926.5212615741,FALSE,TRUE,FALSE,2,3
"645","1277","Aug 09 2013","12:30:37",17,4,"Same",1,"Novel100",1,"Novel100",1,1601,"2","3",1,"Exp 2",15926.5212615741,TRUE,TRUE,FALSE,2,3
"646","1277","Aug 09 2013","12:30:37",18,5,"New Label",1,"Novel108",0,"Novel108",0,2448,"2","3",1,"Exp 2",15926.5212615741,TRUE,TRUE,FALSE,2,3
"647","1277","Aug 09 2013","12:30:37",19,6,"Same",0,"Novel99",0,"Novel99",1,1548,"2","3",1,"Exp 2",15926.5212615741,TRUE,TRUE,FALSE,2,3
"648","1277","Aug 09 2013","12:30:37",20,7,"New Label",0,"Novel24",0,"Novel24",1,1811,"2","3",1,"Exp 2",15926.5212615741,TRUE,TRUE,FALSE,2,3
"649","1278","Aug 09 2013","12:30:40",9,0,"New Label",0,"Novel25",1,"Novel138",1,1679,"2","3",1,"Exp 2",15926.5212962963,FALSE,TRUE,TRUE,2,3
"650","1278","Aug 09 2013","12:30:40",10,1,"Same",1,"Novel6",0,"Novel6",0,2694,"2","3",1,"Exp 2",15926.5212962963,TRUE,TRUE,FALSE,2,3
"651","1278","Aug 09 2013","12:30:40",11,2,"New Label",1,"Novel45",1,"Novel18",0,1731,"2","3",1,"Exp 2",15926.5212962963,FALSE,TRUE,FALSE,2,3
"652","1278","Aug 09 2013","12:30:40",12,3,"Same",0,"Novel112",1,"Novel112",0,1183,"2","3",1,"Exp 2",15926.5212962963,TRUE,TRUE,FALSE,2,3
"653","1278","Aug 09 2013","12:30:40",17,4,"New Label",0,"Novel46",0,"Novel139",0,1703,"2","3",1,"Exp 2",15926.5212962963,FALSE,TRUE,FALSE,2,3
"654","1278","Aug 09 2013","12:30:40",18,5,"Same",1,"Novel63",0,"Novel63",0,2291,"2","3",1,"Exp 2",15926.5212962963,TRUE,TRUE,FALSE,2,3
"655","1278","Aug 09 2013","12:30:40",19,6,"New Label",1,"Novel104",0,"Novel104",0,2324,"2","3",1,"Exp 2",15926.5212962963,TRUE,TRUE,FALSE,2,3
"656","1278","Aug 09 2013","12:30:40",20,7,"Same",0,"Novel115",0,"Novel115",1,2346,"2","3",1,"Exp 2",15926.5212962963,TRUE,TRUE,FALSE,2,3
"657","1279","Aug 05 2013","22:53:33",9,0,"New Label",0,"Novel95",3,"Novel13",3,1139,"4","3",1,"Exp 2",15922.9538541667,FALSE,TRUE,TRUE,4,3
"658","1279","Aug 05 2013","22:53:33",10,1,"Same",1,"Novel30",1,"Novel30",1,1282,"4","3",1,"Exp 2",15922.9538541667,TRUE,TRUE,FALSE,4,3
"659","1279","Aug 05 2013","22:53:33",11,2,"New Label",0,"Novel8",3,"Novel79",1,1240,"4","3",1,"Exp 2",15922.9538541667,FALSE,TRUE,FALSE,4,3
"660","1279","Aug 05 2013","22:53:33",12,3,"Same",1,"Novel60",2,"Novel60",2,1255,"4","3",1,"Exp 2",15922.9538541667,TRUE,TRUE,FALSE,4,3
"661","1279","Aug 05 2013","22:53:33",17,4,"New Label",1,"Novel15",1,"Novel48",0,1089,"4","3",1,"Exp 2",15922.9538541667,FALSE,TRUE,FALSE,4,3
"662","1279","Aug 05 2013","22:53:33",18,5,"Same",0,"Novel87",2,"Novel87",0,1009,"4","3",1,"Exp 2",15922.9538541667,TRUE,TRUE,FALSE,4,3
"663","1279","Aug 05 2013","22:53:33",19,6,"New Label",1,"Novel107",3,"Novel107",3,1379,"4","3",1,"Exp 2",15922.9538541667,TRUE,TRUE,FALSE,4,3
"664","1279","Aug 05 2013","22:53:33",20,7,"Same",0,"Novel111",0,"Novel111",2,2054,"4","3",1,"Exp 2",15922.9538541667,TRUE,TRUE,FALSE,4,3
"665","1280","Aug 14 2013","19:16:41",6,0,"New Label",1,"Novel17",3,"Novel41",0,4227,"4","0",1,"Exp 2",15931.8032523148,FALSE,TRUE,TRUE,4,0
"666","1280","Aug 14 2013","19:16:41",8,1,"Same",1,"Novel78",1,"Novel78",1,1671,"4","0",1,"Exp 2",15931.8032523148,TRUE,TRUE,FALSE,4,0
"667","1280","Aug 14 2013","19:16:41",10,2,"New Label",1,"Novel3",1,"Novel19",0,3541,"4","0",1,"Exp 2",15931.8032523148,FALSE,TRUE,FALSE,4,0
"668","1280","Aug 14 2013","19:16:41",12,3,"Same",0,"Novel109",2,"Novel109",1,7891,"4","0",1,"Exp 2",15931.8032523148,TRUE,TRUE,FALSE,4,0
"669","1280","Aug 14 2013","19:16:41",14,4,"New Label",0,"Novel123",2,"Novel123",1,2415,"4","0",1,"Exp 2",15931.8032523148,TRUE,TRUE,FALSE,4,0
"670","1280","Aug 14 2013","19:16:41",16,5,"Same",0,"Novel8",3,"Novel8",1,4112,"4","0",1,"Exp 2",15931.8032523148,TRUE,TRUE,FALSE,4,0
"671","1280","Aug 14 2013","19:16:41",18,6,"New Label",0,"Novel134",0,"Novel95",0,1952,"4","0",1,"Exp 2",15931.8032523148,FALSE,TRUE,FALSE,4,0
"672","1280","Aug 14 2013","19:16:41",20,7,"Same",1,"Novel77",2,"Novel77",2,3564,"4","0",1,"Exp 2",15931.8032523148,TRUE,TRUE,FALSE,4,0
"673","1281","Aug 06 2013","01:43:16",9,0,"Same",0,"Novel34",3,"Novel34",1,2407,"4","3",1,"Exp 2",15923.071712963,TRUE,TRUE,TRUE,4,3
"674","1281","Aug 06 2013","01:43:16",10,1,"New Label",0,"Novel108",0,"Novel108",3,4024,"4","3",1,"Exp 2",15923.071712963,TRUE,TRUE,FALSE,4,3
"675","1281","Aug 06 2013","01:43:16",11,2,"Same",0,"Novel118",1,"Novel118",0,1934,"4","3",1,"Exp 2",15923.071712963,TRUE,TRUE,FALSE,4,3
"676","1281","Aug 06 2013","01:43:16",12,3,"New Label",1,"Novel27",3,"Novel44",0,2239,"4","3",1,"Exp 2",15923.071712963,FALSE,TRUE,FALSE,4,3
"677","1281","Aug 06 2013","01:43:16",17,4,"Same",1,"Novel11",1,"Novel72",2,5422,"4","3",1,"Exp 2",15923.071712963,FALSE,TRUE,FALSE,4,3
"678","1281","Aug 06 2013","01:43:16",18,5,"New Label",1,"Novel65",2,"Novel49",1,6165,"4","3",1,"Exp 2",15923.071712963,FALSE,TRUE,FALSE,4,3
"679","1281","Aug 06 2013","01:43:16",19,6,"Same",1,"Novel21",2,"Novel21",2,6707,"4","3",1,"Exp 2",15923.071712963,TRUE,TRUE,FALSE,4,3
"680","1281","Aug 06 2013","01:43:16",20,7,"New Label",0,"Novel56",1,"Novel135",1,3814,"4","3",1,"Exp 2",15923.071712963,FALSE,TRUE,FALSE,4,3
"681","1282","Aug 05 2013","22:21:07",9,0,"Same",1,"Novel18",0,"Novel18",0,1258,"3","3",1,"Exp 2",15922.9313310185,TRUE,TRUE,TRUE,3,3
"682","1282","Aug 05 2013","22:21:07",10,1,"New Label",0,"Novel52",2,"Novel81",2,2859,"3","3",1,"Exp 2",15922.9313310185,FALSE,TRUE,FALSE,3,3
"683","1282","Aug 05 2013","22:21:07",11,2,"Same",0,"Novel72",0,"Novel72",2,1604,"3","3",1,"Exp 2",15922.9313310185,TRUE,TRUE,FALSE,3,3
"684","1282","Aug 05 2013","22:21:07",12,3,"New Label",1,"Novel31",2,"Novel70",0,2490,"3","3",1,"Exp 2",15922.9313310185,FALSE,TRUE,FALSE,3,3
"685","1282","Aug 05 2013","22:21:07",17,4,"Same",0,"Novel83",0,"Novel5",2,1840,"3","3",1,"Exp 2",15922.9313310185,FALSE,TRUE,FALSE,3,3
"686","1282","Aug 05 2013","22:21:07",18,5,"New Label",0,"Novel82",0,"Novel2",2,1549,"3","3",1,"Exp 2",15922.9313310185,FALSE,TRUE,FALSE,3,3
"687","1282","Aug 05 2013","22:21:07",19,6,"Same",1,"Novel96",2,"Novel96",2,2251,"3","3",1,"Exp 2",15922.9313310185,TRUE,TRUE,FALSE,3,3
"688","1282","Aug 05 2013","22:21:07",20,7,"New Label",1,"Novel101",1,"Novel13",0,1981,"3","3",1,"Exp 2",15922.9313310185,FALSE,TRUE,FALSE,3,3
"689","1283","Aug 05 2013","22:58:27",9,0,"Same",0,"Novel27",1,"Novel27",0,3145,"4","3",1,"Exp 2",15922.9572569444,TRUE,TRUE,TRUE,4,3
"690","1283","Aug 05 2013","22:58:27",10,1,"New Label",0,"Novel61",3,"Novel86",0,3463,"4","3",1,"Exp 2",15922.9572569444,FALSE,TRUE,FALSE,4,3
"691","1283","Aug 05 2013","22:58:27",11,2,"Same",1,"Novel88",3,"Novel88",3,1836,"4","3",1,"Exp 2",15922.9572569444,TRUE,TRUE,FALSE,4,3
"692","1283","Aug 05 2013","22:58:27",12,3,"New Label",1,"Novel83",1,"Novel45",3,3742,"4","3",1,"Exp 2",15922.9572569444,FALSE,TRUE,FALSE,4,3
"693","1283","Aug 05 2013","22:58:27",17,4,"Same",0,"Novel114",0,"Novel114",3,1753,"4","3",1,"Exp 2",15922.9572569444,TRUE,TRUE,FALSE,4,3
"694","1283","Aug 05 2013","22:58:27",18,5,"New Label",1,"Novel92",0,"Novel92",0,5150,"4","3",1,"Exp 2",15922.9572569444,TRUE,TRUE,FALSE,4,3
"695","1283","Aug 05 2013","22:58:27",19,6,"Same",1,"Novel13",3,"Novel13",3,2103,"4","3",1,"Exp 2",15922.9572569444,TRUE,TRUE,FALSE,4,3
"696","1283","Aug 05 2013","22:58:27",20,7,"New Label",0,"Novel63",1,"Novel63",0,4366,"4","3",1,"Exp 2",15922.9572569444,TRUE,TRUE,FALSE,4,3
"697","1284","Aug 10 2013","13:43:13",7,0,"Same",1,"Novel136",0,"Novel136",0,1503,"8","1",1,"Exp 2",15927.5716782407,TRUE,TRUE,TRUE,8,1
"698","1284","Aug 10 2013","13:43:13",8,1,"New Label",0,"Novel110",5,"Novel93",7,4878,"8","1",1,"Exp 2",15927.5716782407,FALSE,TRUE,FALSE,8,1
"699","1284","Aug 10 2013","13:43:13",11,2,"Same",0,"Novel37",1,"Novel37",2,4333,"8","1",1,"Exp 2",15927.5716782407,TRUE,TRUE,FALSE,8,1
"700","1284","Aug 10 2013","13:43:13",12,3,"New Label",0,"Novel92",6,"Novel121",4,2408,"8","1",1,"Exp 2",15927.5716782407,FALSE,TRUE,FALSE,8,1
"701","1284","Aug 10 2013","13:43:13",15,4,"Same",1,"Novel36",3,"Novel36",3,1902,"8","1",1,"Exp 2",15927.5716782407,TRUE,TRUE,FALSE,8,1
"702","1284","Aug 10 2013","13:43:13",16,5,"New Label",1,"Novel75",6,"Novel61",4,2609,"8","1",1,"Exp 2",15927.5716782407,FALSE,TRUE,FALSE,8,1
"703","1284","Aug 10 2013","13:43:13",19,6,"Same",0,"Novel89",3,"Novel89",4,5364,"8","1",1,"Exp 2",15927.5716782407,TRUE,TRUE,FALSE,8,1
"704","1284","Aug 10 2013","13:43:13",20,7,"New Label",1,"Novel79",4,"Novel26",0,3907,"8","1",1,"Exp 2",15927.5716782407,FALSE,TRUE,FALSE,8,1
"705","1285","Aug 05 2013","22:11:46",7,0,"Same",0,"Novel100",2,"Novel100",1,898,"4","1",1,"Exp 2",15922.924837963,TRUE,TRUE,TRUE,4,1
"706","1285","Aug 05 2013","22:11:46",8,1,"New Label",0,"Novel23",2,"Novel76",2,2699,"4","1",1,"Exp 2",15922.924837963,FALSE,TRUE,FALSE,4,1
"707","1285","Aug 05 2013","22:11:46",11,2,"Same",0,"Novel26",1,"Novel26",3,3321,"4","1",1,"Exp 2",15922.924837963,TRUE,TRUE,FALSE,4,1
"708","1285","Aug 05 2013","22:11:46",12,3,"New Label",0,"Novel44",3,"Novel107",3,2148,"4","1",1,"Exp 2",15922.924837963,FALSE,TRUE,FALSE,4,1
"709","1285","Aug 05 2013","22:11:46",15,4,"Same",1,"Novel2",0,"Novel2",0,2497,"4","1",1,"Exp 2",15922.924837963,TRUE,TRUE,FALSE,4,1
"710","1285","Aug 05 2013","22:11:46",16,5,"New Label",1,"Novel50",1,"Novel50",1,2569,"4","1",1,"Exp 2",15922.924837963,TRUE,TRUE,FALSE,4,1
"711","1285","Aug 05 2013","22:11:46",19,6,"Same",1,"Novel43",0,"Novel43",0,1899,"4","1",1,"Exp 2",15922.924837963,TRUE,TRUE,FALSE,4,1
"712","1285","Aug 05 2013","22:11:46",20,7,"New Label",1,"Novel74",1,"Novel99",2,6353,"4","1",1,"Exp 2",15922.924837963,FALSE,TRUE,FALSE,4,1
"713","1286","Aug 09 2013","12:20:32",13,0,"New Label",0,"Novel124",0,"Novel124",1,1662,"2","7",1,"Exp 2",15926.5142592593,TRUE,TRUE,TRUE,2,7
"714","1286","Aug 09 2013","12:20:32",14,1,"Same",0,"Novel37",0,"Novel72",0,1606,"2","7",1,"Exp 2",15926.5142592593,FALSE,TRUE,FALSE,2,7
"715","1286","Aug 09 2013","12:20:32",15,2,"New Label",1,"Novel112",0,"Novel128",1,2293,"2","7",1,"Exp 2",15926.5142592593,FALSE,TRUE,FALSE,2,7
"716","1286","Aug 09 2013","12:20:32",16,3,"Same",1,"Novel73",1,"Novel73",1,1932,"2","7",1,"Exp 2",15926.5142592593,TRUE,TRUE,FALSE,2,7
"717","1286","Aug 09 2013","12:20:32",17,4,"New Label",1,"Novel13",1,"Novel13",1,2856,"2","7",1,"Exp 2",15926.5142592593,TRUE,TRUE,FALSE,2,7
"718","1286","Aug 09 2013","12:20:32",18,5,"Same",1,"Novel6",0,"Novel19",1,1831,"2","7",1,"Exp 2",15926.5142592593,FALSE,TRUE,FALSE,2,7
"719","1286","Aug 09 2013","12:20:32",19,6,"New Label",0,"Novel69",0,"Novel28",0,1583,"2","7",1,"Exp 2",15926.5142592593,FALSE,TRUE,FALSE,2,7
